time,seconds_elapsed,z,y,x
1714065749747073500,0.179073486328125,0.02257061004638672,-0.05463986098766327,0.00859484076499939
1714065749757149400,0.1891494140625,0.0742177963256836,-0.10326431691646576,-0.013030275702476501
1714065749767225300,0.199225341796875,0.1510915756225586,-0.14653125405311584,-0.002664431929588318
1714065749777301200,0.20930126953125,0.12735748291015625,-0.1299961358308792,-0.0001575946807861328
1714065749787377400,0.21937744140625,0.11359405517578125,-0.08178584277629852,-0.006696254014968872
1714065749797453600,0.22945361328125,0.08436965942382812,-0.013803139328956604,-0.001663297414779663
1714065749807529700,0.23952978515625,0.055779457092285156,-0.0013038069009780884,0.01424330472946167
1714065749817606000,0.24960595703125,0.06068992614746094,-0.053719282150268555,0.018211454153060913
1714065749827682000,0.25968212890625,0.09239864349365234,-0.12995682656764984,0.026250213384628296
1714065749837758500,0.269758544921875,0.10906410217285156,-0.16218039393424988,0.004611581563949585
1714065749847835000,0.2798349609375,0.053069114685058594,-0.11473938822746277,-0.00019276142120361328
1714065749857911000,0.2899111328125,0.018457412719726562,-0.0589117556810379,-0.00009337067604064941
1714065749867987500,0.299987548828125,-0.0029268264770507812,0.0034457743167877197,0.00011613965034484863
1714065749878063600,0.310063720703125,0.022245407104492188,-0.0027985572814941406,0.004980266094207764
1714065749888140000,0.32014013671875,0.043990135192871094,-0.02266557514667511,-0.008615463972091675
1714065749898216400,0.330216552734375,0.07855224609375,-0.04443247616291046,-0.014873474836349487
1714065749908292900,0.34029296875,0.0842905044555664,-0.042678579688072205,-0.00497688353061676
1714065749918369300,0.350369384765625,0.05324554443359375,-0.013429418206214905,0.004380851984024048
1714065749928445700,0.36044580078125,0.04422187805175781,-0.0011098980903625488,0.0067115724086761475
1714065749938522000,0.370522216796875,0.047127723693847656,-0.03967815637588501,0.013682395219802856
1714065749948598500,0.3805986328125,0.05460834503173828,-0.09070925414562225,0.018109917640686035
1714065749958675000,0.390675048828125,0.052657127380371094,-0.10576416552066803,0.010746002197265625
1714065749968751400,0.40075146484375,0.02772235870361328,-0.0813780128955841,0.0012173652648925781
1714065749978827800,0.410827880859375,0.0198516845703125,-0.03706994652748108,0.001267760992050171
1714065749988904200,0.420904296875,0.0006742477416992188,-0.0032630711793899536,-0.0031973570585250854
1714065749998980900,0.43098095703125,0.01689624786376953,0.006646707653999329,-0.002887710928916931
1714065750009057300,0.441057373046875,0.04424762725830078,0.013941153883934021,-0.002471610903739929
1714065750019133700,0.4511337890625,0.0638580322265625,-0.00941149890422821,-0.0020699799060821533
1714065750029210400,0.46121044921875,0.08063602447509766,-0.018388643860816956,0.012153685092926025
1714065750039286800,0.471286865234375,0.062099456787109375,-0.0178210586309433,0.023664653301239014
1714065750049363500,0.481363525390625,0.04876995086669922,-0.02415160834789276,0.02335500717163086
1714065750059439900,0.49143994140625,0.04049205780029297,-0.032545045018196106,0.03239503502845764
1714065750069516500,0.5015166015625,0.025457382202148438,-0.057074740529060364,0.015565872192382812
1714065750079593200,0.51159326171875,0.024820327758789062,-0.06480845808982849,0.015388041734695435
1714065750089670000,0.521669921875,0.02888202667236328,-0.053827911615371704,0.0012099146842956543
1714065750099746300,0.531746337890625,0.02118206024169922,-0.026781201362609863,-0.012749478220939636
1714065750109823000,0.541822998046875,-0.0003566741943359375,0.01844841241836548,-0.02159494161605835
1714065750119899600,0.551899658203125,0.011350631713867188,0.03236682713031769,0.00016786158084869385
1714065750129842000,0.561842041015625,0.036850929260253906,0.013216137886047363,-0.004305630922317505
1714065750139720700,0.571720703125,0.05712699890136719,0.0013921111822128296,0.005364075303077698
1714065750149600500,0.5816005859375,0.058251380920410156,-0.012640371918678284,0.012487471103668213
1714065750159481000,0.591481201171875,0.05234813690185547,-0.026268571615219116,0.012435495853424072
1714065750169360600,0.601360595703125,0.03721046447753906,-0.03013134002685547,0.031151890754699707
1714065750179239400,0.611239501953125,0.020041465759277344,-0.05035293102264404,0.023816347122192383
1714065750189119200,0.621119140625,0.017303466796875,-0.03734093904495239,0.016513407230377197
1714065750198999600,0.63099951171875,0.012276649475097656,-0.04819193482398987,0.011587440967559814
1714065750208879400,0.64087939453125,0.009695053100585938,-0.02361920475959778,-0.007213950157165527
1714065750218758100,0.650758056640625,-0.0022382736206054688,0.000372081995010376,-0.004521876573562622
1714065750228638000,0.660637939453125,0.000152587890625,0.02404533326625824,-0.008931994438171387
1714065750238518300,0.670518310546875,0.028367042541503906,0.028611093759536743,-0.0062122642993927
1714065750248398000,0.680398193359375,0.046688079833984375,0.023697510361671448,0.0035140514373779297
1714065750258276900,0.69027685546875,0.04823589324951172,-0.00006479024887084961,0.015426591038703918
1714065750268156400,0.700156494140625,0.06389236450195312,-0.006952643394470215,0.003603622317314148
1714065750278037000,0.710037109375,0.06047248840332031,-0.03491249680519104,0.02494056522846222
1714065750287916800,0.719916748046875,0.038275718688964844,-0.029447555541992188,0.020025715231895447
1714065750297795600,0.729795654296875,0.016448974609375,-0.03584468364715576,0.019901171326637268
1714065750307675100,0.739675048828125,-0.0003032684326171875,-0.023186326026916504,0.029192447662353516
1714065750317555700,0.7495556640625,0.009115219116210938,-0.0296877920627594,0.0007830709218978882
1714065750327435500,0.759435546875,-0.009871482849121094,-0.017247319221496582,0.0033334344625473022
1714065750337314300,0.769314208984375,0.009125709533691406,0.004402577877044678,-0.00122128427028656
1714065750347193900,0.77919384765625,0.01838970184326172,0.025691673159599304,-0.0009916871786117554
1714065750357074400,0.789074462890625,0.02043628692626953,0.03014656901359558,-0.005474299192428589
1714065750366954000,0.7989541015625,0.03422069549560547,0.020520314574241638,0.0043612271547317505
1714065750376833000,0.8088330078125,0.05719184875488281,0.010936185717582703,0.009206175804138184
1714065750386712600,0.818712646484375,0.05859184265136719,-0.022030115127563477,0.01632462441921234
1714065750396593200,0.82859326171875,0.043491363525390625,-0.023724108934402466,0.020970284938812256
1714065750406472700,0.83847265625,0.035706520080566406,-0.03716084361076355,0.018475890159606934
1714065750416351500,0.8483515625,0.01392364501953125,-0.029304146766662598,0.00425209105014801
1714065750426231300,0.858231201171875,0.0066280364990234375,-0.023814231157302856,0.00686308741569519
1714065750436112000,0.86811181640625,0.004161834716796875,-0.018534153699874878,-0.0048129260540008545
1714065750445991400,0.877991455078125,0.0088043212890625,-0.0014527738094329834,0.0001850426197052002
1714065750455870200,0.8878701171875,0.013364791870117188,0.012871354818344116,0.0027454793453216553
1714065750465750000,0.89775,0.020203590393066406,0.03166519105434418,-0.004153534770011902
1714065750475630600,0.907630615234375,0.03399085998535156,0.03602060675621033,0.014958634972572327
1714065750485510100,0.91751025390625,0.0546112060546875,0.02382408082485199,0.010210275650024414
1714065750495389000,0.927388916015625,0.04899120330810547,-0.0022943615913391113,0.007895305752754211
1714065750505268700,0.937268798828125,0.03404521942138672,-0.025741636753082275,0.026806697249412537
1714065750515149300,0.9471494140625,0.03112030029296875,-0.03938129544258118,0.024215146899223328
1714065750525028900,0.95702880859375,0.03295135498046875,-0.041022688150405884,0.021666809916496277
1714065750534907600,0.96690771484375,0.0017948150634765625,-0.030865728855133057,0.005035713315010071
1714065750544787500,0.976787353515625,0.0017642974853515625,-0.01840841770172119,0.0028039216995239258
1714065750554667800,0.986667724609375,0.011150360107421875,-0.01086413860321045,-0.00645013153553009
1714065750564547600,0.996547607421875,-0.0031614303588867188,0.029513150453567505,-0.006133183836936951
1714065750574426400,1.00642626953125,0.01572132110595703,0.029077738523483276,0.005949437618255615
1714065750584306200,1.01630615234375,0.008396148681640625,0.04524734616279602,-0.0010028481483459473
1714065750594186500,1.0261865234375,0.02473735809326172,0.021126121282577515,0.0061675310134887695
1714065750604066300,1.03606640625,0.04315757751464844,0.0233030766248703,0.013336792588233948
1714065750613945000,1.045945068359375,0.03066253662109375,0.001901775598526001,0.022859156131744385
1714065750623825000,1.055824951171875,0.03721427917480469,-0.01914280652999878,0.025041833519935608
1714065750633705200,1.065705322265625,0.03423881530761719,-0.0421907901763916,0.029542401432991028
1714065750643585000,1.0755849609375,0.007771492004394531,-0.03895848989486694,0.01984274387359619
1714065750653463800,1.0854638671875,0.0029325485229492188,-0.026366233825683594,0.017364174127578735
1714065750663343600,1.095343505859375,-0.006529808044433594,-0.013862460851669312,0.014930114150047302
1714065750673224000,1.105223876953125,0.010056495666503906,-0.001685500144958496,-0.001588568091392517
1714065750683103700,1.115103759765625,-0.006590843200683594,0.022056564688682556,-0.0037099123001098633
1714065750692982500,1.124982421875,0.0076427459716796875,0.035989031195640564,-0.008146986365318298
1714065750702862300,1.1348623046875,0.02163982391357422,0.04027250409126282,0.013386085629463196
1714065750712742700,1.14474267578125,0.03540325164794922,0.0327136367559433,0.015726745128631592
1714065750722622500,1.15462255859375,0.04422950744628906,0.00880134105682373,0.020382553339004517
1714065750732501200,1.164501220703125,0.04584503173828125,-0.007649779319763184,0.022606581449508667
1714065750742380800,1.174380859375,0.040370941162109375,-0.026180893182754517,0.024793565273284912
1714065750752261400,1.184261474609375,0.013798713684082031,-0.032632142305374146,0.020000025629997253
1714065750762141200,1.19414111328125,0.0206298828125,-0.029562026262283325,0.022227346897125244
1714065750772020000,1.20402001953125,-0.005610466003417969,-0.028894364833831787,0.010295465588569641
1714065750781899500,1.2138994140625,0.001544952392578125,-0.009404212236404419,0.0032709091901779175
1714065750791780000,1.223780029296875,-0.0008363723754882812,0.014466553926467896,-0.005993947386741638
1714065750801659600,1.23365966796875,-0.003173828125,0.038060858845710754,0.003732338547706604
1714065750811538700,1.24353857421875,0.013358116149902344,0.04466405510902405,0.0038797110319137573
1714065750821418200,1.253418212890625,0.020196914672851562,0.039386242628097534,0.011087208986282349
1714065750831298800,1.263298828125,0.038692474365234375,0.020071223378181458,0.008757859468460083
1714065750841178400,1.273178466796875,0.040401458740234375,0.015203341841697693,0.022946715354919434
1714065750851057400,1.283057373046875,0.039727210998535156,-0.015482544898986816,0.027479127049446106
1714065750860937000,1.29293701171875,0.029646873474121094,-0.015052378177642822,0.02722764015197754
1714065750870817500,1.302817626953125,0.010318756103515625,-0.02168905735015869,0.01992093026638031
1714065750880697300,1.312697265625,-0.003979682922363281,-0.032923489809036255,0.017444372177124023
1714065750890576100,1.322576171875,-0.006268501281738281,-0.01336619257926941,0.003238111734390259
1714065750900455700,1.33245556640625,-0.015577316284179688,-0.0011973679065704346,0.0032753050327301025
1714065750910336300,1.342336181640625,-0.005902290344238281,0.010768622159957886,-0.001278012990951538
1714065750920215800,1.3522158203125,0.0012578964233398438,0.03195194900035858,0.0013071447610855103
1714065750930094800,1.3620947265625,0.008299827575683594,0.04101121425628662,-0.0008592158555984497
1714065750939974400,1.371974365234375,0.041118621826171875,0.02402333915233612,0.01348993182182312
1714065750949855000,1.38185498046875,0.040431976318359375,0.019089609384536743,0.006412193179130554
1714065750959734500,1.391734619140625,0.03269481658935547,-0.004595458507537842,0.013577595353126526
1714065750969613600,1.401613525390625,0.032149314880371094,-0.011406421661376953,0.025331959128379822
1714065750979493000,1.4114931640625,0.015132904052734375,-0.036937415599823,0.018056869506835938
1714065750989373700,1.421373779296875,0.017233848571777344,-0.036146700382232666,0.017965644598007202
1714065750999253200,1.431253173828125,0.005176544189453125,-0.02595534920692444,0.013164341449737549
1714065751009132300,1.44113232421875,-0.011389732360839844,-0.015930891036987305,0.017863035202026367
1714065751019011800,1.45101171875,-0.0017833709716796875,0.000989079475402832,0.0012956857681274414
1714065751028892400,1.460892333984375,-0.004107475280761719,0.031752243638038635,-0.010287165641784668
1714065751038772000,1.47077197265625,0.0100860595703125,0.043169111013412476,0.01599016785621643
1714065751048650800,1.480650634765625,0.01698017120361328,0.04497888684272766,0.0018081814050674438
1714065751058530600,1.490530517578125,0.037888526916503906,0.03981156647205353,0.011401340365409851
1714065751068411100,1.5004111328125,0.046675682067871094,0.013542592525482178,0.011417895555496216
1714065751078290700,1.510290771484375,0.03883552551269531,-0.005341589450836182,0.03027096390724182
1714065751088169700,1.520169677734375,0.038184165954589844,-0.01920264959335327,0.025386348366737366
1714065751098049300,1.53004931640625,0.02106475830078125,-0.03989523649215698,0.027645811438560486
1714065751107929900,1.539929931640625,0.011297225952148438,-0.03434675931930542,0.017978057265281677
1714065751117809400,1.549809326171875,-0.00772857666015625,-0.012529969215393066,0.015534043312072754
1714065751127688200,1.559688232421875,-0.012308120727539062,0.004333376884460449,0.003713935613632202
1714065751137568000,1.569568115234375,-0.007391929626464844,0.011498868465423584,-0.00802774727344513
1714065751147448600,1.579448486328125,-0.011977195739746094,0.03031301498413086,-0.002978980541229248
1714065751157328100,1.589328125,0.007056236267089844,0.04175393283367157,-0.00036534667015075684
1714065751167207000,1.59920703125,0.021066665649414062,0.04123316705226898,0.011502906680107117
1714065751177086700,1.609086669921875,0.03484153747558594,0.03365848958492279,0.013875186443328857
1714065751186967300,1.61896728515625,0.048386573791503906,0.012084901332855225,0.016207948327064514
1714065751196846800,1.628846923828125,0.028745651245117188,0.0026418566703796387,0.030272826552391052
1714065751206726000,1.638725830078125,0.02591228485107422,-0.02535879611968994,0.023034080862998962
1714065751216605400,1.64860546875,0.01842021942138672,-0.026999473571777344,0.020502611994743347
1714065751226486000,1.658486083984375,0.01340484619140625,-0.03108265995979309,0.020370766520500183
1714065751236365600,1.668365478515625,-0.0032968521118164062,-0.002139061689376831,0.001407533884048462
1714065751246244400,1.678244384765625,-0.007950782775878906,0.0027801990509033203,0.0015939027070999146
1714065751256124200,1.688124267578125,-0.0031099319458007812,0.014677107334136963,-0.0029344409704208374
1714065751266004700,1.698004638671875,-0.0007028579711914062,0.049920618534088135,-0.009738266468048096
1714065751275884300,1.70788427734375,0.015787124633789062,0.04455539584159851,0.007113248109817505
1714065751285763000,1.71776318359375,0.03200340270996094,0.032217010855674744,0.00955873727798462
1714065751295643000,1.727642822265625,0.04559612274169922,0.029503971338272095,0.011966660618782043
1714065751305523500,1.7375234375,0.030710220336914062,0.01741647720336914,0.028456509113311768
1714065751315403000,1.747403076171875,0.041968345642089844,-0.017892926931381226,0.02360236644744873
1714065751325281800,1.75728173828125,0.020082473754882812,-0.019773662090301514,0.028127267956733704
1714065751335161600,1.76716162109375,0.012684822082519531,-0.026331454515457153,0.020805805921554565
1714065751345042200,1.777042236328125,0.0030574798583984375,-0.025717318058013916,0.008897989988327026
1714065751354921700,1.786921630859375,-0.008762359619140625,-0.02499479055404663,0.011313781142234802
1714065751364800500,1.796800537109375,-0.01567554473876953,0.013382822275161743,-0.0027900338172912598
1714065751374680300,1.806680419921875,-0.005993843078613281,0.02746020257472992,0.006764516234397888
1714065751384561000,1.816560791015625,-0.005893707275390625,0.041302964091300964,0.01627849042415619
1714065751394440400,1.8264404296875,0.020101547241210938,0.05020663142204285,0.004446104168891907
1714065751404319200,1.8363193359375,0.024477005004882812,0.040128275752067566,0.0021090656518936157
1714065751414199000,1.846198974609375,0.038196563720703125,0.018565595149993896,0.0117005854845047
1714065751424079600,1.85607958984375,0.025793075561523438,0.013841718435287476,0.021132320165634155
1714065751433959200,1.865959228515625,0.0324249267578125,-0.009755700826644897,0.03746946156024933
1714065751443838000,1.875837890625,0.020114898681640625,-0.028254300355911255,0.0276348739862442
1714065751453717800,1.8857177734375,-0.0037593841552734375,-0.0181942880153656,0.020199760794639587
1714065751463598300,1.895598388671875,-0.008405685424804688,-0.024781256914138794,0.008298859000205994
1714065751473478000,1.905477783203125,0.005862236022949219,0.0018219053745269775,0.0013079196214675903
1714065751483356700,1.915356689453125,-0.010715484619140625,0.013737797737121582,0.00620444118976593
1714065751493236500,1.925236572265625,-0.010534286499023438,0.030163481831550598,-0.005578652024269104
1714065751503117000,1.935116943359375,0.0014162063598632812,0.041609928011894226,-0.0077453553676605225
1714065751512996600,1.94499658203125,0.006100654602050781,0.03873750567436218,0.006718859076499939
1714065751522875400,1.95487548828125,0.02954387664794922,0.03132322430610657,0.0068168044090271
1714065751532755200,1.964755126953125,0.0384674072265625,0.028622254729270935,0.01632995903491974
1714065751542635800,1.9746357421875,0.04018211364746094,0.002421438694000244,0.028035536408424377
1714065751552515300,1.984515380859375,0.025386810302734375,-0.02098560333251953,0.018361464142799377
1714065751562394000,1.99439404296875,0.015543937683105469,-0.03235021233558655,0.030036434531211853
1714065751572274000,2.00427392578125,0.0035161972045898438,-0.02928149700164795,0.013147726655006409
1714065751582154500,2.014154541015625,-0.0012502670288085938,-0.019204288721084595,0.03196895122528076
1714065751592034000,2.024033935546875,-0.015355110168457031,0.004833102226257324,0.01045835018157959
1714065751601912800,2.033912841796875,-0.005679130554199219,0.023880109190940857,-0.001276940107345581
1714065751611792600,2.043792724609375,-0.012647628784179688,0.026008695363998413,-0.010465696454048157
1714065751621673200,2.053673095703125,-0.0030193328857421875,0.04458414018154144,-0.005372852087020874
1714065751631552800,2.063552734375,0.020572662353515625,0.048724740743637085,0.006697654724121094
1714065751641431600,2.073431640625,0.029648780822753906,0.03867119550704956,0.0066773295402526855
1714065751651311400,2.083311279296875,0.043280601501464844,0.03349362313747406,0.013838648796081543
1714065751661191700,2.093191650390625,0.026079177856445312,0.0001520216464996338,0.013818055391311646
1714065751671071500,2.103071533203125,0.027997970581054688,-0.011446148157119751,0.02556876838207245
1714065751680950300,2.1129501953125,0.008697509765625,-0.027559399604797363,0.02299848198890686
1714065751690830000,2.122830078125,-0.0008640289306640625,-0.029278934001922607,0.018116801977157593
1714065751700710700,2.132710693359375,-0.012620925903320312,-0.01449042558670044,0.013316527009010315
1714065751710590200,2.142590087890625,-0.007701873779296875,-0.004656761884689331,-0.005528926849365234
1714065751720469000,2.152468994140625,-0.021696090698242188,0.01689976453781128,-0.0005216300487518311
1714065751730348800,2.162348876953125,-0.009562492370605469,0.04268960654735565,0.004405498504638672
1714065751740229400,2.1722294921875,0.014139175415039062,0.046861886978149414,-0.000166282057762146
1714065751750109000,2.18210888671875,0.013903617858886719,0.03919360041618347,0.021234288811683655
1714065751759987700,2.19198779296875,0.03250694274902344,0.03165310621261597,0.009200721979141235
1714065751769867500,2.201867431640625,0.03667449951171875,0.01952993869781494,0.016320019960403442
1714065751779747800,2.211747802734375,0.036063194274902344,0.0005462467670440674,0.020966485142707825
1714065751789627600,2.221627685546875,0.026040077209472656,-0.0111771821975708,0.023181334137916565
1714065751799506400,2.23150634765625,0.009127616882324219,-0.02729782462120056,0.020647600293159485
1714065751809386200,2.24138623046875,-0.016921043395996094,-0.024313300848007202,0.015805184841156006
1714065751819266600,2.2512666015625,-0.009572982788085938,-0.01655423641204834,0.018102794885635376
1714065751829146400,2.261146484375,-0.0047016143798828125,0.002849400043487549,-0.000822409987449646
1714065751839025200,2.271025146484375,-0.018746376037597656,0.021810859441757202,0.0016368329524993896
1714065751848905000,2.280905029296875,0.00039958953857421875,0.045164719223976135,-0.005242958664894104
1714065751858785300,2.290785400390625,0.00039577484130859375,0.04929575324058533,0.0019983649253845215
1714065751868665000,2.3006650390625,0.014514923095703125,0.04864951968193054,0.013946101069450378
1714065751878544000,2.3105439453125,0.03546142578125,0.029180482029914856,0.016277939081192017
1714065751888423700,2.320423583984375,0.04428672790527344,0.0029733777046203613,0.023279324173927307
1714065751898304000,2.330303955078125,0.027065277099609375,0.0006262660026550293,0.032518237829208374
1714065751908183800,2.340183837890625,0.01248931884765625,-0.015688151121139526,0.022769615054130554
1714065751918062600,2.3500625,-0.006549835205078125,-0.024546384811401367,0.017895027995109558
1714065751927942400,2.3599423828125,0.0029754638671875,-0.02396184206008911,0.010744303464889526
1714065751937822700,2.36982275390625,-0.0064907073974609375,-0.01161608099937439,0.013129577040672302
1714065751947702500,2.37970263671875,-0.018151283264160156,0.014649122953414917,-0.0011230707168579102
1714065751957581300,2.389581298828125,-0.010782241821289062,0.031059756875038147,0.0060495734214782715
1714065751967461000,2.399461181640625,-0.0035400390625,0.03542591631412506,-0.0032579153776168823
1714065751977341400,2.409341552734375,0.00829315185546875,0.05149027705192566,0.006304517388343811
1714065751987221200,2.41922119140625,0.019928932189941406,0.05080753564834595,0.015707597136497498
1714065751997100000,2.42910009765625,0.033722877502441406,0.028948381543159485,0.01094748079776764
1714065752006979800,2.438979736328125,0.037871360778808594,0.016870349645614624,0.022627398371696472
1714065752016860200,2.448860107421875,0.020760536193847656,-0.013842850923538208,0.017748787999153137
1714065752026740000,2.458739990234375,0.011000633239746094,-0.02273470163345337,0.020017340779304504
1714065752036618800,2.46861865234375,0.003753662109375,-0.036305516958236694,0.01989385485649109
1714065752046498600,2.47849853515625,-0.008075714111328125,-0.02139982581138611,0.012591063976287842
1714065752056379000,2.48837890625,-0.017358779907226562,0.0003171563148498535,0.012588128447532654
1714065752066258700,2.4982587890625,-0.0194244384765625,0.019320905208587646,-0.0015366971492767334
1714065752076137500,2.508137451171875,-0.009683609008789062,0.026236921548843384,0.012824207544326782
1714065752086017300,2.518017333984375,-0.007167816162109375,0.037743136286735535,0.008108973503112793
1714065752095897600,2.527897705078125,0.009433746337890625,0.049179285764694214,0.008183971047401428
1714065752105777400,2.53777734375,0.018692970275878906,0.04382668435573578,0.01767447590827942
1714065752115656200,2.54765625,0.03250694274902344,0.0244351327419281,0.01994098722934723
1714065752125535700,2.55753564453125,0.03667259216308594,0.0030126571655273438,0.02687816321849823
1714065752135416300,2.567416259765625,0.033710479736328125,-0.006281793117523193,0.02651834487915039
1714065752145296100,2.577296142578125,0.01902294158935547,-0.02483522891998291,0.01686975359916687
1714065752155175000,2.5871748046875,-0.009547233581542969,-0.02671879529953003,0.016798749566078186
1714065752165054500,2.597054443359375,0.021196365356445312,-0.02621975541114807,0.0008403360843658447
1714065752174935000,2.60693505859375,-0.04271984100341797,0.02852754294872284,-0.02722683548927307
1714065752184814800,2.61681494140625,0.11803913116455078,-0.011663377285003662,-0.22028514742851257
1714065752194693600,2.626693603515625,-0.22758197784423828,-0.010569244623184204,-0.4158063530921936
1714065752204573200,2.6365732421875,0.13168716430664062,0.11381702125072479,0.2146916687488556
1714065752214453800,2.646453857421875,0.13882064819335938,-0.03009265661239624,-0.10386303067207336
1714065752224333300,2.656333251953125,0.08934879302978516,0.08154371380805969,-0.7104796767234802
1714065752234212400,2.66621240234375,0.8173589706420898,-0.03503921627998352,-1.227064847946167
1714065752244092000,2.676091796875,-0.5995006561279297,0.14372798800468445,-2.325334072113037
1714065752253972500,2.685972412109375,-1.3213720321655273,0.03148245811462402,-2.6270604133605957
1714065752263852000,2.69585205078125,1.8912992477416992,-0.180856853723526,-1.993435025215149
1714065752273731000,2.70573095703125,0.6603822708129883,-0.1660676896572113,-2.474142551422119
1714065752283610600,2.715610595703125,-1.2977447509765625,0.061687082052230835,-3.1868896484375
1714065752293491200,2.7254912109375,0.2193889617919922,-0.24458515644073486,-2.7720954418182373
1714065752303370800,2.735370849609375,1.0484323501586914,-0.12606006860733032,-2.6368024349212646
1714065752313249800,2.745249755859375,-0.7731542587280273,0.23230186104774475,-3.2494239807128906
1714065752323129300,2.75512939453125,-1.8674488067626953,0.07598379254341125,-2.7587454319000244
1714065752333010000,2.765010009765625,2.4138593673706055,0.002450793981552124,-2.14725661277771
1714065752342889500,2.774889404296875,1.448781967163086,0.3725651800632477,-3.3820579051971436
1714065752352768300,2.784768310546875,-2.923823833465576,-0.009011000394821167,-3.830472469329834
1714065752362648000,2.79464794921875,1.6091852188110352,-0.8043930530548096,-1.830237627029419
1714065752372528600,2.804528564453125,1.1758699417114258,0.08344177901744843,-2.0028462409973145
1714065752382408200,2.814408203125,-0.8871307373046875,0.7546154260635376,-2.6011648178100586
1714065752392287000,2.824286865234375,-0.9503297805786133,-0.5218727588653564,-2.9022715091705322
1714065752402166800,2.834166748046875,-0.5122013092041016,-0.013842850923538208,-2.942730188369751
1714065752412047400,2.84404736328125,0.39399051666259766,0.9478506445884705,-2.568871259689331
1714065752421927000,2.853927001953125,-0.601771354675293,0.119478240609169,-2.928494453430176
1714065752431805700,2.8638056640625,-1.2694110870361328,-0.5767612457275391,-2.333399534225464
1714065752441685500,2.873685546875,2.542490005493164,-0.40010249614715576,-3.7555882930755615
1714065752451566000,2.883566162109375,-0.33222293853759766,-0.8641126751899719,-3.2146739959716797
1714065752461445600,2.893445556640625,2.867755889892578,-0.3352982699871063,-2.519026041030884
1714065752471324400,2.903324462890625,0.7412939071655273,-0.1813669204711914,-2.4102296829223633
1714065752481204200,2.913204345703125,-1.9622421264648438,0.5705121755599976,-3.090691566467285
1714065752491084500,2.92308447265625,-2.3779215812683105,0.5121939778327942,-2.1953344345092773
1714065752500964400,2.93296435546875,0.9184694290161133,0.018534868955612183,-2.597964286804199
1714065752510843100,2.942843017578125,0.5677042007446289,-0.3674338459968567,-2.7050395011901855
1714065752520723000,2.952722900390625,0.6750335693359375,-0.00807201862335205,-2.413390636444092
1714065752530603300,2.962603271484375,0.49828624725341797,0.4205892086029053,-1.3827829360961914
1714065752540483000,2.972483154296875,-0.7913446426391602,-1.2502930164337158,-2.511740207672119
1714065752550361900,2.98236181640625,1.0462455749511719,0.4382562041282654,-2.153667449951172
1714065752560241700,2.99224169921875,-0.4439048767089844,0.3328545093536377,-2.6802515983581543
1714065752570122000,3.0021220703125,-4.916043281555176,0.07151275873184204,-0.1951996386051178
1714065752580001800,3.012001708984375,5.452886581420898,1.077923059463501,-3.163240909576416
1714065752589880600,3.021880615234375,-1.2989978790283203,-0.3347618281841278,-3.886725902557373
1714065752599760400,3.031760498046875,-3.482058525085449,-0.9830264449119568,-1.6086418628692627
1714065752609640700,3.041640625,5.641841888427734,-1.042245626449585,-0.1822810173034668
1714065752619520500,3.0515205078125,1.1306047439575195,-0.19612208008766174,-0.9265817403793335
1714065752629399300,3.0613994140625,-2.1232619285583496,0.32428911328315735,-3.1010184288024902
1714065752639279000,3.071279052734375,-2.704568386077881,-0.25543150305747986,-2.6977744102478027
1714065752649159400,3.081159423828125,1.8234491348266602,0.9447484016418457,-0.9367743730545044
1714065752659039200,3.091039306640625,0.8192901611328125,0.17740470170974731,-1.7266292572021484
1714065752668918000,3.10091796875,-1.5787763595581055,-0.5225489139556885,-1.1722166538238525
1714065752678797800,3.1107978515625,1.5348176956176758,0.3754379153251648,-1.3594355583190918
1714065752688678100,3.12067822265625,1.481581687927246,2.815138101577759,-0.7639583349227905
1714065752698558000,3.130557861328125,-0.3746061325073242,-1.0373446941375732,-1.9315534830093384
1714065752708436700,3.140436767578125,-4.488970756530762,-2.0104575157165527,-0.9748241305351257
1714065752718316500,3.150316650390625,0.21836280822753906,-0.5566803216934204,-2.395662784576416
1714065752728196900,3.16019677734375,2.446756362915039,1.2113816738128662,-0.06629285216331482
1714065752738076700,3.17007666015625,1.226480484008789,-0.2698332965373993,-2.0560226440429688
1714065752747955500,3.17995556640625,-1.2452764511108398,-1.305152416229248,-2.6223785877227783
1714065752757835300,3.189835205078125,-0.6296930313110352,0.7881714701652527,-1.2009788751602173
1714065752767715600,3.199715576171875,1.7700366973876953,0.3612978458404541,0.5023524165153503
1714065752777595100,3.20959521484375,0.45502185821533203,-0.01903820037841797,-0.4805896580219269
1714065752787474200,3.21947412109375,-1.9378395080566406,1.3224784135818481,-2.018465757369995
1714065752797353700,3.229353759765625,-2.5531997680664062,1.1341148614883423,-1.7891194820404053
1714065752807234300,3.239234375,-0.246337890625,0.012829095125198364,-2.0879313945770264
1714065752817114000,3.249114013671875,1.4474506378173828,1.2292088270187378,-1.5441710948944092
1714065752826993000,3.258992919921875,-2.4179301261901855,-2.044241428375244,0.3678174912929535
1714065752836872400,3.26887255859375,5.480233192443848,-0.5649662017822266,0.46495914459228516
1714065752846753000,3.2787529296875,0.905792236328125,-0.7497188448905945,-2.664992094039917
1714065752856632600,3.288632568359375,-2.5451788902282715,0.7361364364624023,-1.2533376216888428
1714065752866511600,3.29851171875,0.7532777786254883,0.044150471687316895,-0.6964354515075684
1714065752876391200,3.30839111328125,-0.48033905029296875,0.8400286436080933,0.08356320858001709
1714065752886271700,3.318271728515625,-1.2417306900024414,1.7412183284759521,-1.603427767753601
1714065752896151300,3.3281513671875,-1.5071773529052734,1.643992304801941,-1.0107122659683228
1714065752906030000,3.338030029296875,0.2796001434326172,-1.046878457069397,-1.1144022941589355
1714065752915910000,3.347909912109375,2.4989748001098633,-0.9110666513442993,0.5269083976745605
1714065752925790500,3.35779052734375,0.7842111587524414,-0.46002617478370667,-1.4196650981903076
1714065752935670000,3.367669921875,-0.4356689453125,-0.23291152715682983,-2.696471691131592
1714065752945548800,3.377548828125,-0.9299783706665039,0.45553356409072876,-0.47086426615715027
1714065752955428600,3.3874287109375,1.263930320739746,-0.013090580701828003,0.1362025886774063
1714065752965309200,3.39730908203125,-1.1238994598388672,1.5825259685516357,-0.7690179944038391
1714065752975188700,3.407188720703125,-1.4897937774658203,0.984367847442627,-1.6820526123046875
1714065752985067500,3.417067626953125,-2.066728115081787,-0.7540994882583618,-2.503199577331543
1714065752994947300,3.426947265625,2.7945899963378906,-0.4081156849861145,-0.098904550075531
1714065753004828000,3.436827880859375,1.2657041549682617,1.0331889390945435,-0.8746258616447449
1714065753014707500,3.44670751953125,-1.7111310958862305,-1.99391770362854,-0.47960320115089417
1714065753024586200,3.456586181640625,3.2050580978393555,-0.08234786987304688,0.8008942604064941
1714065753034466000,3.466466064453125,1.000208854675293,0.6157464981079102,-0.8240630626678467
1714065753044346600,3.4763466796875,-2.910170078277588,0.5738352537155151,-0.9002364873886108
1714065753054226200,3.48622607421875,-0.8258686065673828,0.8600873947143555,-0.986213743686676
1714065753064105000,3.49610498046875,-0.8514318466186523,-0.921680212020874,-1.4285080432891846
1714065753073984800,3.50598486328125,-2.5331778526306152,-1.9135582447052002,-1.762568473815918
1714065753083865300,3.515865234375,3.83056640625,2.2180395126342773,1.841483235359192
1714065753093745000,3.525744873046875,4.20246696472168,-0.5379550457000732,0.17351961135864258
1714065753103623700,3.535623779296875,-0.5223875045776367,-0.4663448631763458,-1.2005008459091187
1714065753113503500,3.54550341796875,-3.3862462043762207,0.3745124638080597,-0.42430204153060913
1714065753123384000,3.555384033203125,1.7048559188842773,0.9901728630065918,-0.21879559755325317
1714065753133263600,3.565263671875,0.7265310287475586,0.24053268134593964,-1.7965282201766968
1714065753143142400,3.575142333984375,-2.2070131301879883,-0.3607902228832245,-1.2336277961730957
1714065753153022200,3.585022216796875,-3.039125919342041,-0.5269445776939392,1.050115704536438
1714065753162902500,3.594902587890625,5.001914978027344,-0.48896199464797974,3.1764841079711914
1714065753172782300,3.6047822265625,6.546283721923828,0.8299362659454346,-1.3558869361877441
1714065753182661000,3.6146611328125,-2.4221200942993164,0.07560938596725464,-4.205412864685059
1714065753192541000,3.624541015625,-8.440216064453125,0.1943581998348236,-1.0758099555969238
1714065753202421200,3.634421142578125,4.167970657348633,2.1169772148132324,0.402395635843277
1714065753212301000,3.644301025390625,-2.609969139099121,-1.2446794509887695,-0.7035869359970093
1714065753222179800,3.654179931640625,-0.1263132095336914,-0.9755947589874268,-1.0782651901245117
1714065753232059600,3.6640595703125,-4.041792392730713,2.3681468963623047,0.7613468766212463
1714065753241940000,3.67393994140625,4.862126350402832,-0.23817425966262817,-0.3676418364048004
1714065753251819800,3.68381982421875,5.611425399780273,-0.8810287117958069,1.6727653741836548
1714065753261698600,3.693698486328125,-0.4907341003417969,0.3628854751586914,0.35238879919052124
1714065753271578400,3.703578369140625,-1.948023796081543,1.3875164985656738,-1.1466964483261108
1714065753281458700,3.713458740234375,-0.6536884307861328,-0.2727973163127899,-1.458526372909546
1714065753291338500,3.72333837890625,-1.6061649322509766,-1.8606529235839844,0.568446159362793
1714065753301217300,3.73321728515625,0.4609050750732422,0.8316642642021179,2.313995122909546
1714065753311096800,3.743096923828125,2.205852508544922,1.2230281829833984,-0.43732747435569763
1714065753320977400,3.752977294921875,0.16122913360595703,0.7289393544197083,-3.2042346000671387
1714065753330857200,3.762857177734375,-4.796042442321777,-1.800884485244751,-0.7589914798736572
1714065753340736000,3.772736083984375,4.277983665466309,1.6901730298995972,0.47745606303215027
1714065753350615600,3.782615478515625,0.1929645538330078,-0.6466320753097534,-0.622199296951294
1714065753360496000,3.79249609375,-1.3761978149414062,-0.7018842101097107,0.19732585549354553
1714065753370376000,3.8023759765625,1.4719085693359375,-0.8578827977180481,-0.38211432099342346
1714065753380254700,3.812254638671875,-0.17296791076660156,1.1529902219772339,0.49307548999786377
1714065753390134300,3.82213427734375,1.5332012176513672,-0.08341524004936218,0.313069224357605
1714065753400014800,3.832014892578125,-0.7106142044067383,1.2486252784729004,0.6226010918617249
1714065753409894400,3.841894287109375,-2.0026397705078125,1.188966155052185,-0.8002833127975464
1714065753419773400,3.8517734375,-2.976100444793701,-1.0282771587371826,-0.9556359648704529
1714065753429653000,3.861653076171875,0.6098699569702148,-0.5158242583274841,0.9968318939208984
1714065753439533600,3.871533447265625,3.6660537719726562,0.16118651628494263,1.0785329341888428
1714065753449413000,3.8814130859375,0.00002193450927734375,-0.39051252603530884,0.31000643968582153
1714065753459292200,3.891292236328125,2.229696273803711,0.6941560506820679,-0.2611587941646576
1714065753469171700,3.901171630859375,-1.4069433212280273,1.8679264783859253,-2.3585681915283203
1714065753479052300,3.91105224609375,-4.2570271492004395,0.47645044326782227,-0.9317548274993896
1714065753488931800,3.920931884765625,-0.06552410125732422,-1.2875245809555054,-0.03918939828872681
1714065753498811000,3.930810791015625,0.7512130737304688,0.24722209572792053,2.0388948917388916
1714065753508690400,3.9406904296875,-0.3338479995727539,-1.3709737062454224,-0.46726489067077637
1714065753518571000,3.950571044921875,-0.8910207748413086,1.9195621013641357,-2.0219767093658447
1714065753528450600,3.960450439453125,2.5215673446655273,0.37417715787887573,1.0663119554519653
1714065753538329300,3.970329345703125,0.02931499481201172,0.9923296570777893,0.19562000036239624
1714065753548209200,3.980209228515625,-0.5693845748901367,-0.39548933506011963,-1.3974589109420776
1714065753558089700,3.99008984375,-4.264910697937012,-0.365167498588562,1.4471380710601807
1714065753567969300,3.99996923828125,5.251156806945801,0.3733642101287842,1.5720192193984985
1714065753577848000,4.00984814453125,1.9222679138183594,0.2758912146091461,0.6982465982437134
1714065753587728000,4.019727783203125,-1.5148448944091797,-0.026025593280792236,0.8178502321243286
1714065753597608400,4.0296083984375,0.5635814666748047,3.0888731479644775,-1.0471041202545166
1714065753607488000,4.039488037109375,-1.1676197052001953,0.30273735523223877,-3.027884006500244
1714065753617366800,4.04936669921875,-6.00732946395874,-2.8622384071350098,0.6704732179641724
1714065753627246600,4.05924658203125,5.0676727294921875,0.7629520297050476,1.8452140092849731
1714065753637127200,4.069127197265625,1.2319974899291992,1.0355525016784668,-0.9604325294494629
1714065753647006700,4.0790068359375,-1.0152482986450195,3.00608491897583,-0.6885672807693481
1714065753656885500,4.088885498046875,-0.012487411499023438,-1.1583172082901,0.665412187576294
1714065753666765300,4.098765380859375,1.231816291809082,-1.8091176748275757,0.2759488821029663
1714065753676646000,4.10864599609375,0.027873992919921875,0.12951478362083435,0.13090848922729492
1714065753686525400,4.118525390625,0.7842521667480469,1.327643871307373,0.8403017520904541
1714065753696404200,4.128404296875,-1.027414321899414,0.28227198123931885,-0.13995233178138733
1714065753706284000,4.138283935546875,-1.0134572982788086,-1.2739861011505127,0.05429759621620178
1714065753716164400,4.148164306640625,3.379484176635742,3.186695098876953,0.3646172285079956
1714065753726044200,4.158044189453125,-1.06396484375,2.346479892730713,-2.4108455181121826
1714065753735923000,4.1679228515625,-3.693197727203369,-1.9631354808807373,-1.8461415767669678
1714065753745802800,4.177802734375,-3.3118629455566406,-1.9080266952514648,2.209815740585327
1714065753755683000,4.18768310546875,3.9276275634765625,0.4651641249656677,2.6217989921569824
1714065753765563000,4.19756298828125,3.4080610275268555,0.3570336699485779,-0.11508122086524963
1714065753775441700,4.207441650390625,-1.5634851455688477,1.9396374225616455,-1.7598698139190674
1714065753785321500,4.217321533203125,0.7669210433959961,1.0109798908233643,1.1123988628387451
1714065753795201800,4.227201904296875,1.1817960739135742,-2.6319165229797363,-1.040194034576416
1714065753805081600,4.23708154296875,-2.2191410064697266,-0.9978542327880859,1.8062087297439575
1714065753814960400,4.24696044921875,0.7283258438110352,1.446204423904419,0.7618249654769897
1714065753824840200,4.256840087890625,1.4831924438476562,0.3530413508415222,0.23213732242584229
1714065753834720500,4.266720458984375,-2.562533378601074,-0.24778151512145996,0.7424312829971313
1714065753844600300,4.276600341796875,1.5017890930175781,2.718888282775879,-0.6841347217559814
1714065753854479000,4.28647900390625,1.9355249404907227,-0.20660027861595154,-2.4885430335998535
1714065753864358700,4.296358642578125,-6.517963409423828,-2.278670072555542,0.5323919653892517
1714065753874239200,4.3062392578125,9.620049476623535,-0.7503706812858582,3.5782389640808105
1714065753884119000,4.316119140625,1.2960100173950195,0.13234347105026245,-0.5537242889404297
1714065753893997800,4.325997802734375,-3.8783674240112305,0.45831096172332764,-1.303763747215271
1714065753903877400,4.33587744140625,-2.064638614654541,3.4847593307495117,-0.5790663957595825
1714065753913758000,4.345758056640625,3.154536247253418,-0.3012709319591522,-0.07108032703399658
1714065753923637800,4.3556376953125,-1.8319520950317383,-2.513606071472168,1.795128583908081
1714065753933516500,4.3655166015625,-0.3993949890136719,0.22989419102668762,0.337557852268219
1714065753943396000,4.37539599609375,-3.023437976837158,0.972327709197998,-0.08762836456298828
1714065753953276700,4.385276611328125,-4.268251419067383,1.4044172763824463,0.7465865015983582
1714065753963156200,4.39515625,0.005177497863769531,2.608211040496826,-0.5899304151535034
1714065753973035300,4.40503515625,0.8341541290283203,2.3315072059631348,-1.3909587860107422
1714065753982914800,4.414914794921875,-0.25980186462402344,-2.468496322631836,-0.31335046887397766
1714065753992795400,4.42479541015625,9.552668571472168,-0.07376885414123535,2.9141063690185547
1714065754002675000,4.434675048828125,2.31619930267334,-0.09510639309883118,2.2687366008758545
1714065754012553700,4.4445537109375,-3.3759589195251465,-1.2292592525482178,-0.9573565721511841
1714065754022433500,4.45443359375,-4.364548206329346,2.4613916873931885,-2.1299915313720703
1714065754032314000,4.464314208984375,0.6390228271484375,1.8112465143203735,-0.35094064474105835
1714065754042193700,4.474193603515625,3.541593551635742,-1.3410134315490723,0.7883285880088806
1714065754052072400,4.484072509765625,-0.8828191757202148,-0.2389678657054901,1.3064624071121216
1714065754061952300,4.4939521484375,-1.0446891784667969,-0.6469662189483643,-0.23988685011863708
1714065754071832600,4.50383251953125,-5.495633125305176,1.483062505722046,0.4523868262767792
1714065754081712400,4.51371240234375,-2.729477882385254,0.14511114358901978,0.41232946515083313
1714065754091591200,4.523591064453125,5.098265647888184,0.35897716879844666,2.1937105655670166
1714065754101471000,4.533470947265625,6.014430046081543,0.7469017505645752,-2.3069143295288086
1714065754111351300,4.543351318359375,-0.9211082458496094,-0.05017507076263428,-2.2961082458496094
1714065754121231000,4.553231201171875,-1.479966163635254,-0.3004316985607147,1.8468096256256104
1714065754131110000,4.56310986328125,0.06022071838378906,1.6050381660461426,1.0506478548049927
1714065754140989700,4.57298974609375,-0.16715049743652344,1.286258339881897,-0.37720000743865967
1714065754150870000,4.5828701171875,-4.213247776031494,-2.0739190578460693,0.89241623878479
1714065754160749800,4.592749755859375,-0.1346759796142578,-0.1089600920677185,-0.3639497458934784
1714065754170628600,4.602628662109375,3.3737478256225586,1.5951955318450928,0.44531717896461487
1714065754180508400,4.61250830078125,-2.025847911834717,0.2742345333099365,0.4977879524230957
1714065754190388700,4.622388671875,-1.2332267761230469,-0.34439271688461304,-0.8684687614440918
1714065754200268500,4.6322685546875,0.3362712860107422,-1.2795960903167725,0.7436050176620483
1714065754210147300,4.642147216796875,2.489150047302246,1.3073787689208984,0.9293110370635986
1714065754220027100,4.652027099609375,-0.2638969421386719,-0.23108771443367004,0.9564132690429688
1714065754229907500,4.661907470703125,2.3510971069335938,0.3220798373222351,2.0995371341705322
1714065754239787300,4.671787353515625,-2.119105815887451,1.3118290901184082,-0.845978856086731
1714065754249666000,4.681666015625,-3.103405475616455,-0.16077405214309692,-2.462097644805908
1714065754259545600,4.691545654296875,-3.1708226203918457,-0.028293251991271973,1.6888905763626099
1714065754269426200,4.70142626953125,7.231794357299805,-0.9874211549758911,2.643026828765869
1714065754279305700,4.7113056640625,4.521851539611816,0.06084179878234863,2.12762713432312
1714065754289184800,4.721184814453125,-1.9140863418579102,1.0483100414276123,-0.4575764238834381
1714065754299064300,4.731064208984375,-3.777216911315918,0.323457270860672,-1.507305383682251
1714065754308945000,4.74094482421875,-0.9304885864257812,-0.8895598649978638,-1.1894032955169678
1714065754318824400,4.750824462890625,0.7297039031982422,0.3398801386356354,2.7463927268981934
1714065754328703500,4.760703369140625,4.246065139770508,0.9427884817123413,-2.063957929611206
1714065754338583000,4.7705830078125,-2.6746602058410645,-0.4104427993297577,-0.651224672794342
1714065754348463600,4.780463623046875,-0.00031757354736328125,0.7263661026954651,2.2402267456054688
1714065754358343200,4.79034326171875,0.5423707962036133,-0.16050052642822266,1.4618570804595947
1714065754368222000,4.800221923828125,0.38756847381591797,-0.5381314754486084,1.1101999282836914
1714065754378101800,4.810101806640625,-0.5097808837890625,1.643248438835144,1.0400046110153198
1714065754387982300,4.819982421875,2.7879180908203125,-0.23300671577453613,-0.1852797567844391
1714065754397862000,4.82986181640625,-1.0617046356201172,0.4264943301677704,-0.1008957028388977
1714065754407740700,4.83974072265625,-2.312859058380127,0.9278027415275574,-0.9358307123184204
1714065754417620500,4.849620361328125,-0.06276321411132812,-0.9951931238174438,0.3869788944721222
1714065754427500800,4.859500732421875,2.749603271484375,-0.6551779508590698,4.037639617919922
1714065754437380600,4.869380615234375,3.3342952728271484,2.0682411193847656,-0.041746288537979126
1714065754447259400,4.87925927734375,1.4564743041992188,1.2104671001434326,-2.0124943256378174
1714065754457139200,4.88913916015625,-4.9970855712890625,-0.039438486099243164,0.04118642210960388
1714065754467019500,4.89901953125,-1.1678190231323242,-0.055676162242889404,-0.12585246562957764
1714065754476899300,4.9088994140625,-3.8820648193359375,-1.2241965532302856,0.9046639204025269
1714065754486778000,4.918778076171875,0.07745838165283203,2.760749101638794,1.3981456756591797
1714065754496658000,4.928657958984375,-0.2294635772705078,0.6992652416229248,0.004834085702896118
1714065754506538200,4.938538330078125,0.4406423568725586,-1.064840316772461,-1.0779297351837158
1714065754516418000,4.94841796875,-1.4082317352294922,1.7142622470855713,-0.7841216325759888
1714065754526296800,4.958296875,4.994284629821777,-1.3611228466033936,-0.5530228018760681
1714065754536176400,4.96817626953125,0.9975881576538086,-1.0962891578674316,3.7284250259399414
1714065754546057000,4.978056884765625,1.011521339416504,-0.18186035752296448,2.113436698913574
1714065754555936800,4.987936767578125,1.8840217590332031,1.9292060136795044,-1.3964656591415405
1714065754565815600,4.997815673828125,-2.0869975090026855,-0.5832430124282837,-1.4140344858169556
1714065754575695000,5.007695068359375,-4.43440055847168,-2.2732579708099365,-0.2770257890224457
1714065754585575700,5.01757568359375,-1.6757068634033203,-0.9192042350769043,1.200136661529541
1714065754595455200,5.027455322265625,-0.7393655776977539,1.055334210395813,1.0525423288345337
1714065754605334300,5.037334228515625,-1.7372121810913086,0.20600596070289612,-1.6992377042770386
1714065754615213800,5.0472138671875,0.07674407958984375,1.3179317712783813,1.6838427782058716
1714065754625094400,5.057094482421875,4.502066612243652,0.800984263420105,1.1113373041152954
1714065754634974000,5.066973876953125,-0.8534469604492188,-2.0546064376831055,0.34044432640075684
1714065754644852700,5.076852783203125,2.832657814025879,-0.21954956650733948,3.0761559009552
1714065754654732500,5.086732666015625,1.0880441665649414,0.46577826142311096,1.6075984239578247
1714065754664613000,5.096613037109375,-2.8344197273254395,-1.3448829650878906,1.573809266090393
1714065754674492700,5.10649267578125,1.336355209350586,2.7656667232513428,-0.6630792617797852
1714065754684371500,5.116371337890625,1.440526008605957,1.523175597190857,-3.9367780685424805
1714065754694251300,5.126251220703125,-8.08601188659668,1.0236754417419434,-0.3499457836151123
1714065754704131600,5.136131591796875,-0.6013269424438477,-2.0641188621520996,0.3274414539337158
1714065754714011400,5.146011474609375,0.35202980041503906,1.767008900642395,1.686124563217163
1714065754723890200,5.15589013671875,2.8357067108154297,0.6087013483047485,2.5935676097869873
1714065754733770000,5.16577001953125,-0.47860145568847656,1.658385157585144,-1.3982203006744385
1714065754743650300,5.175650390625,-1.8194313049316406,0.4412524998188019,-1.8164348602294922
1714065754753530000,5.185530029296875,6.089679718017578,-0.7287433743476868,2.7942581176757812
1714065754763409000,5.195408935546875,-1.9686870574951172,0.0011135637760162354,1.7137346267700195
1714065754773288700,5.205288818359375,0.46544933319091797,0.26950109004974365,1.9647789001464844
1714065754783169000,5.2151689453125,0.6511240005493164,2.341442346572876,-3.1405465602874756
1714065754793048800,5.225048828125,-1.9914484024047852,-0.33682820200920105,-3.2333264350891113
1714065754802927600,5.234927734375,-5.904330730438232,-1.963649034500122,2.714884042739868
1714065754812807200,5.24480712890625,5.384101867675781,0.6387652158737183,2.386498212814331
1714065754822687700,5.254687744140625,3.8266725540161133,0.028256088495254517,0.3770211637020111
1714065754832567600,5.264567626953125,-4.110482692718506,1.2382818460464478,-0.6286464333534241
1714065754842446300,5.2744462890625,-3.461439609527588,-0.27242153882980347,-2.2055282592773438
1714065754852326000,5.284325927734375,1.8937292098999023,-1.2290891408920288,1.0405502319335938
1714065754862206500,5.29420654296875,4.933042526245117,-0.21340706944465637,2.9754300117492676
1714065754872086000,5.3040859375,0.6616678237915039,-0.15881627798080444,0.6697885990142822
1714065754881965000,5.313965087890625,-2.5195059776306152,0.28563153743743896,0.5263718962669373
1714065754891844600,5.3238447265625,-0.9253730773925781,2.087061882019043,-0.6579704880714417
1714065754901725200,5.33372509765625,-0.06059074401855469,-1.078969955444336,-0.4398497939109802
1714065754911604700,5.343604736328125,-3.7780556678771973,-1.0864871740341187,2.110959529876709
1714065754921483500,5.3534833984375,4.442863464355469,1.121137261390686,0.7972502112388611
1714065754931363300,5.36336328125,2.181652069091797,1.364824652671814,-0.6064977049827576
1714065754941244000,5.373243896484375,-4.610108852386475,1.344777226448059,-0.429387629032135
1714065754951123500,5.38312353515625,1.0057353973388672,-0.6446771025657654,-0.31836575269699097
1714065754961002200,5.393002197265625,0.21361255645751953,-0.8237678408622742,2.5035784244537354
1714065754970882000,5.402882080078125,2.264097213745117,0.09424465894699097,1.3334892988204956
1714065754980762400,5.412762451171875,1.125345230102539,1.2554388046264648,0.8704672455787659
1714065754990642200,5.42264208984375,-4.133709907531738,0.3718852996826172,-0.8550071120262146
1714065755000521000,5.43252099609375,1.577047348022461,1.103637933731079,-2.1817679405212402
1714065755010400800,5.44240087890625,-3.4374451637268066,-0.32279884815216064,0.8428425788879395
1714065755020281000,5.452281005859375,3.235044479370117,-1.561771035194397,0.7552327513694763
1714065755030161000,5.462160888671875,6.327807426452637,-0.3665265440940857,3.3533854484558105
1714065755040039700,5.472039794921875,-1.3624839782714844,0.21573303639888763,-0.3655088543891907
1714065755049919500,5.48191943359375,-0.9459466934204102,2.874573230743408,-1.320601224899292
1714065755059799800,5.4917998046875,-2.3822693824768066,-2.5795156955718994,0.8457990884780884
1714065755069679600,5.5016796875,1.242915153503418,0.124001145362854,1.963108777999878
1714065755079558400,5.511558349609375,0.1630716323852539,1.3813663721084595,-1.047390103340149
1714065755089438000,5.52143798828125,-3.4432225227355957,1.286016583442688,-0.4759615361690521
1714065755099318500,5.531318603515625,-3.9370670318603516,0.07421714067459106,-0.2608086168766022
1714065755109198300,5.5411982421875,5.44882869720459,0.332085520029068,-1.0466172695159912
1714065755119077000,5.5510771484375,4.174079895019531,-1.3719245195388794,2.4581196308135986
1714065755128956700,5.560956787109375,-0.05090618133544922,0.6924971342086792,2.544569492340088
1714065755138837200,5.570837158203125,0.6255502700805664,-0.18736404180526733,0.8489411473274231
1714065755148716800,5.580716796875,-2.8779006004333496,1.0136566162109375,-0.8155739307403564
1714065755158595600,5.590595703125,-0.1917552947998047,0.7573375701904297,-1.6062029600143433
1714065755168475400,5.600475341796875,-4.856439113616943,-0.12507471442222595,1.4198929071426392
1714065755178356000,5.61035595703125,2.850977897644043,-1.825556993484497,1.7702215909957886
1714065755188235500,5.620235595703125,3.295504570007324,1.5408631563186646,1.3284803628921509
1714065755198114300,5.6301142578125,-3.294923782348633,1.060180902481079,-1.2755203247070312
1714065755207994000,5.639994140625,-5.173614025115967,-1.2980201244354248,-1.0107253789901733
1714065755217874700,5.649874755859375,6.009763717651367,0.09775382280349731,2.362356424331665
1714065755227754200,5.659754150390625,4.609129905700684,0.7354758977890015,0.8594983816146851
1714065755237633000,5.669633056640625,-0.30544471740722656,-1.4209144115447998,-0.7202335596084595
1714065755247512800,5.679512939453125,-3.6171159744262695,-0.05687043070793152,1.511864185333252
1714065755257393200,5.68939306640625,1.422506332397461,1.30891752243042,0.24846617877483368
1714065755267273000,5.69927294921875,-2.950716495513916,-2.2888548374176025,-0.20041680335998535
1714065755277151700,5.70915185546875,-2.425088882446289,0.009347975254058838,-0.2016746699810028
1714065755287031600,5.719031494140625,7.797837257385254,2.174764633178711,-0.607609212398529
1714065755296912000,5.728911865234375,-0.2597675323486328,2.996884822845459,-0.12622827291488647
1714065755306791700,5.738791748046875,-2.4819655418395996,-0.12315239757299423,0.2402852475643158
1714065755316670500,5.74867041015625,0.8838644027709961,-1.5648820400238037,1.2905808687210083
1714065755326550300,5.75855029296875,-2.0741724967956543,-1.602760910987854,2.5243287086486816
1714065755336430600,5.7684306640625,-3.2726964950561523,-0.26831111311912537,2.2217602729797363
1714065755346310400,5.778310302734375,1.9409465789794922,4.033337593078613,0.31612148880958557
1714065755356189200,5.788189208984375,-4.593443393707275,1.8447641134262085,-1.6513235569000244
1714065755366069000,5.798069091796875,-8.676535606384277,-1.169504165649414,1.7225267887115479
1714065755375949300,5.80794921875,11.972149848937988,-1.8755558729171753,5.328347206115723
1714065755385828900,5.817828857421875,4.254493713378906,0.30640822649002075,5.9699320793151855
1714065755395708000,5.8277080078125,7.356423377990723,-1.187461018562317,5.471020698547363
1714065755405587500,5.83758740234375,-7.034741401672363,0.6752125024795532,0.08831547200679779
1714065755415468000,5.847468017578125,-4.497128963470459,0.1943511664867401,0.8848109245300293
1714065755425347600,5.85734765625,-0.1877117156982422,0.02378953993320465,2.5495409965515137
1714065755435226400,5.867226318359375,2.6641921997070312,-0.7619637250900269,4.903606414794922
1714065755445106200,5.877106201171875,1.6380376815795898,2.354632616043091,1.8248976469039917
1714065755454986800,5.88698681640625,-2.218416213989258,1.9188599586486816,0.6716901659965515
1714065755464866300,5.8968662109375,-3.877213478088379,-1.3871104717254639,1.421151876449585
1714065755474745000,5.9067451171875,1.1080169677734375,-2.1275839805603027,2.8207755088806152
1714065755484625000,5.916625,1.965407371520996,-0.60918790102005,5.862674236297607
1714065755494505500,5.92650537109375,0.07795238494873047,1.4395798444747925,2.0721065998077393
1714065755504385000,5.936385009765625,-3.003708839416504,0.9579070806503296,-0.3371816575527191
1714065755514263800,5.946263916015625,-0.9423141479492188,-1.0658448934555054,0.6552149653434753
1714065755524143600,5.9561435546875,1.1691293716430664,-0.698867678642273,3.3733396530151367
1714065755534024000,5.96602392578125,0.8371753692626953,0.6441164612770081,2.462493896484375
1714065755543903700,5.97590380859375,-1.0433111190795898,0.6633992791175842,3.1799042224884033
1714065755553782500,5.985782470703125,3.665956497192383,-1.3788659572601318,4.577963352203369
1714065755563662300,5.995662353515625,-1.041947364807129,0.05854333937168121,3.037108898162842
1714065755573542700,6.005542724609375,0.29700183868408203,2.1297731399536133,0.1375436633825302
1714065755583422500,6.01542236328125,-3.3459219932556152,0.4399244487285614,0.9772865772247314
1714065755593301200,6.02530126953125,-0.7243585586547852,-2.0932416915893555,-0.9330905675888062
1714065755603181000,6.03518115234375,-1.3062057495117188,-1.0121040344238281,3.6975622177124023
1714065755613061400,6.045061279296875,2.4512176513671875,0.7354149222373962,4.6413140296936035
1714065755622941200,6.054941162109375,1.9073867797851562,2.3735222816467285,2.655790328979492
1714065755632820000,6.064820068359375,-2.2425384521484375,-0.8976956605911255,1.485586166381836
1714065755642699800,6.07469970703125,-0.42117786407470703,-2.074646472930908,3.6125991344451904
1714065755652580000,6.084580078125,5.6756696701049805,-0.2577182352542877,0.8200244903564453
1714065755662459600,6.094459716796875,-3.4189414978027344,-1.2413779497146606,1.0651935338974
1714065755672338700,6.104338623046875,-1.12066650390625,0.6590622663497925,3.330444097518921
1714065755682218200,6.11421826171875,1.8806123733520508,-0.3044731914997101,2.532050371170044
1714065755692098800,6.124098876953125,-2.332399845123291,0.428062379360199,2.23514986038208
1714065755701978400,6.133978271484375,2.4996891021728516,2.2208569049835205,0.9611631631851196
1714065755711857200,6.143857177734375,-3.7984299659729004,1.2592618465423584,1.179072380065918
1714065755721737000,6.153737060546875,-1.4634885787963867,-3.15934681892395,0.6823766827583313
1714065755731617500,6.163617431640625,-0.5779047012329102,-0.48391610383987427,3.599642038345337
1714065755741497000,6.1734970703125,3.0141372680664062,-0.38974815607070923,4.559767246246338
1714065755751376000,6.1833759765625,-4.53449010848999,-0.7325602173805237,2.6705615520477295
1714065755761255700,6.193255615234375,0.3120298385620117,-0.6102553606033325,66.01046752929688
1714065755771136300,6.20313623046875,15.986146926879883,26.859634399414062,60.3157844543457
1714065755781015800,6.213015869140625,-31.216278076171875,7.86735200881958,-10.933321952819824
1714065755790894600,6.22289453125,-8.135383605957031,-12.649978637695312,-0.0563199520111084
1714065755800774400,6.2327744140625,-5.825128555297852,-4.066917896270752,-18.930652618408203
1714065755810654700,6.24265478515625,2.440030097961426,-0.0659424215555191,-5.282792091369629
1714065755820534500,6.252534423828125,-8.952587127685547,-0.29657575488090515,-3.3621420860290527
1714065755830413300,6.262413330078125,-8.539299964904785,-0.169540673494339,-2.710228681564331
1714065755840293000,6.272293212890625,-9.191097259521484,-0.05899135768413544,-2.61307692527771
1714065755850173400,6.28217333984375,-21.40935516357422,1.5937938690185547,2.3793437480926514
1714065755860053200,6.29205322265625,-8.169825553894043,0.3117294907569885,-2.0182695388793945
1714065755869932000,6.30193212890625,-6.219377517700195,-0.9367163181304932,-1.4244985580444336
1714065755879811800,6.311811767578125,31.26239585876465,-9.052559852600098,24.051942825317383
1714065755889692200,6.321692138671875,3.8595094680786133,-2.1904313564300537,7.47950553894043
1714065755899572000,6.331572021484375,-0.3471403121948242,-0.656292736530304,-3.752061128616333
1714065755909450800,6.34145068359375,-3.135438919067383,-0.7784268856048584,-1.5757362842559814
1714065755919330300,6.351330322265625,-3.6133460998535156,-0.7578798532485962,-0.15009069442749023
1714065755929211000,6.3612109375,-6.69473123550415,-0.5644469261169434,10.810654640197754
1714065755939090400,6.37109033203125,-8.469779968261719,-0.5407277941703796,5.701152801513672
1714065755948969500,6.380969482421875,-5.009077072143555,0.36558765172958374,2.8254880905151367
1714065755958849000,6.39084912109375,-5.97573184967041,1.0216612815856934,5.1344475746154785
1714065755968729600,6.4007294921875,5.437981605529785,1.7703553438186646,2.081160545349121
1714065755978609200,6.410609130859375,-22.328838348388672,13.583362579345703,-12.814796447753906
1714065755988488000,6.420488037109375,25.546886444091797,-10.407035827636719,-28.63325309753418
1714065755998367700,6.43036767578125,4.006630897521973,-4.727573394775391,-20.441850662231445
1714065756008248300,6.440248291015625,22.49292755126953,3.2421209812164307,3.7055041790008545
1714065756018128000,6.4501279296875,-0.7475614547729492,1.8357125520706177,1.0436469316482544
1714065756028006700,6.460006591796875,-1.6577167510986328,-1.8500025272369385,0.06659772992134094
1714065756037886500,6.469886474609375,-1.8928098678588867,-1.6808011531829834,0.7252202033996582
1714065756047766800,6.479766845703125,-7.891005516052246,-1.2711602449417114,1.08463716506958
1714065756057646600,6.489646484375,-9.412116050720215,0.47642630338668823,3.236262321472168
1714065756067525400,6.499525390625,-7.81180477142334,1.9807389974594116,3.802063226699829
1714065756077405200,6.5094052734375,-1.934802532196045,3.966954469680786,1.1193516254425049
1714065756087285500,6.519285400390625,-0.12718486785888672,2.2668094635009766,-2.5591213703155518
1714065756097165300,6.529165283203125,0.7374696731567383,-1.8102341890335083,-1.2000226974487305
1714065756107044000,6.539044189453125,5.222653388977051,-0.5016673803329468,-1.8889102935791016
1714065756116924000,6.548923828125,2.991626739501953,-2.6009714603424072,-2.3570337295532227
1714065756126804200,6.55880419921875,5.950431823730469,-2.999086856842041,-1.0720254182815552
1714065756136684000,6.56868408203125,-1.7621698379516602,-2.644491672515869,0.45682910084724426
1714065756146562800,6.578562744140625,-1.2135124206542969,0.8319695591926575,-0.5096838474273682
1714065756156442400,6.5884423828125,-1.3631744384765625,0.6705396175384521,-0.5295750498771667
1714065756166323000,6.598322998046875,-0.6884365081787109,0.8209943771362305,-0.1751323789358139
1714065756176202500,6.608202392578125,1.7848052978515625,0.617660641670227,0.046717703342437744
1714065756186081300,6.618081298828125,-0.4261016845703125,-0.25665485858917236,-0.6480385065078735
1714065756195961000,6.627961181640625,0.1862812042236328,0.08215305209159851,0.7389783263206482
1714065756205841700,6.637841552734375,-0.4565238952636719,0.05567958950996399,0.7741767168045044
1714065756215721200,6.64772119140625,0.7051630020141602,-0.10159310698509216,0.4852007031440735
1714065756225600000,6.65760009765625,0.4716329574584961,-0.27662673592567444,-0.22488752007484436
1714065756235479800,6.667479736328125,0.03818511962890625,0.2526618242263794,-0.025482535362243652
1714065756245360400,6.6773603515625,-0.40604209899902344,0.4525185227394104,0.31563931703567505
1714065756255240000,6.687239990234375,0.2206735610961914,0.09283649921417236,-0.08833079040050507
1714065756265118700,6.69711865234375,0.3348045349121094,-0.16355592012405396,-0.16558930277824402
1714065756274998500,6.70699853515625,0.30529308319091797,-0.10565140843391418,0.31266215443611145
1714065756284878800,6.71687890625,-0.0632791519165039,0.0015250146389007568,0.2368451952934265
1714065756294758700,6.726758544921875,0.18999099731445312,0.1282702088356018,0.04648962616920471
1714065756304637400,6.736637451171875,0.1417694091796875,0.13159911334514618,-0.03208823502063751
1714065756314517000,6.74651708984375,-0.04958152770996094,0.08511164784431458,0.04211503267288208
1714065756324397600,6.7563974609375,0.17264175415039062,-0.025751501321792603,0.16327551007270813
1714065756334277400,6.76627734375,0.26055049896240234,-0.06263887882232666,0.07376980781555176
1714065756344156200,6.77615625,0.13569164276123047,0.0245131254196167,0.09422624111175537
1714065756354035700,6.78603564453125,-0.022263526916503906,0.12802737951278687,0.08798494935035706
1714065756363916300,6.795916259765625,0.07095623016357422,0.1170138269662857,-0.0024156570434570312
1714065756373795800,6.8057958984375,0.17826461791992188,0.04991087317466736,0.03995385766029358
1714065756383675000,6.8156748046875,0.1181173324584961,0.01390218734741211,0.1280677318572998
1714065756393554400,6.825554443359375,0.15601253509521484,0.0067598819732666016,0.09750783443450928
1714065756403435000,6.83543505859375,0.13888931274414062,0.056596219539642334,0.052104681730270386
1714065756413314600,6.845314453125,0.07884502410888672,0.130543053150177,0.05421602725982666
1714065756423193300,6.855193359375,0.10254764556884766,0.104718416929245,0.06396257877349854
1714065756433073200,6.8650732421875,0.15006637573242188,0.03107389807701111,0.10472610592842102
1714065756442953700,6.87495361328125,0.1783447265625,-0.0072758495807647705,0.1093321442604065
1714065756452833300,6.884833251953125,0.16117286682128906,0.04271140694618225,0.09004548192024231
1714065756462712000,6.894712158203125,0.1249532699584961,0.08110606670379639,0.10913178324699402
1714065756472592000,6.904591796875,0.1055450439453125,0.07176154851913452,0.05891507863998413
1714065756482472200,6.91447216796875,0.1220083236694336,0.03127920627593994,0.08023333549499512
1714065756492352000,6.92435205078125,0.1503620147705078,0.014660090208053589,0.12561756372451782
1714065756502230800,6.934230712890625,0.15237045288085938,0.01706835627555847,0.09446871280670166
1714065756512110300,6.9441103515625,0.11616230010986328,0.026515841484069824,0.07521918416023254
1714065756521991000,6.953990966796875,0.09199810028076172,0.0528947114944458,0.07022744417190552
1714065756531870700,6.96387060546875,0.09655189514160156,0.06272903084754944,0.07742694020271301
1714065756541749500,6.97374951171875,0.12736129760742188,0.03182169795036316,0.09893706440925598
1714065756551629000,6.983629150390625,0.13181591033935547,0.010305911302566528,0.08218365907669067
1714065756561509600,6.993509521484375,0.11476325988769531,0.03649038076400757,0.07252153754234314
1714065756571389200,7.00338916015625,0.0929880142211914,0.05090373754501343,0.055715084075927734
1714065756581268200,7.013268310546875,0.08798408508300781,0.07256123423576355,0.07249912619590759
1714065756591147800,7.023147705078125,0.10687828063964844,0.06562963128089905,0.07730484008789062
1714065756601028400,7.0330283203125,0.11138725280761719,0.022774577140808105,0.06550085544586182
1714065756610908000,7.042907958984375,0.11110496520996094,0.051431804895401,0.06554785370826721
1714065756620786700,7.05278662109375,0.11320972442626953,0.06556636095046997,0.07024765014648438
1714065756630666500,7.06266650390625,0.08778572082519531,0.06700122356414795,0.06916716694831848
1714065756640546800,7.072546875,0.08632755279541016,0.061463862657547,0.06586390733718872
1714065756650426600,7.082426513671875,0.11078929901123047,0.04424777626991272,0.07203248143196106
1714065756660305400,7.092305419921875,0.1277761459350586,0.038975417613983154,0.07339400053024292
1714065756670185200,7.102185302734375,0.11152172088623047,0.054978787899017334,0.07002443075180054
1714065756680065500,7.1120654296875,0.10495471954345703,0.05423608422279358,0.06906530261039734
1714065756689945300,7.1219453125,0.10085105895996094,0.05585998296737671,0.07283061742782593
1714065756699824000,7.13182421875,0.10623741149902344,0.06228280067443848,0.09065836668014526
1714065756709703700,7.14170361328125,0.1091756820678711,0.05671006441116333,0.0799386203289032
1714065756719584300,7.151584228515625,0.10735225677490234,0.0205080509185791,0.06939762830734253
1714065756729464000,7.161464111328125,0.10320854187011719,0.03669843077659607,0.07068169116973877
1714065756739342800,7.1713427734375,0.11325836181640625,0.0550941526889801,0.08148279786109924
1714065756749222400,7.181222412109375,0.09489822387695312,0.05447077751159668,0.08257350325584412
1714065756759103000,7.19110302734375,0.10273361206054688,0.030198216438293457,0.07199272513389587
1714065756768982500,7.200982421875,0.0939626693725586,0.025160372257232666,0.07323756814002991
1714065756778861300,7.210861328125,0.08533668518066406,0.02256074547767639,0.07210749387741089
1714065756788741000,7.2207412109375,0.0956888198852539,0.0459006130695343,0.0804131031036377
1714065756798621700,7.23062158203125,0.08468055725097656,0.03601059317588806,0.08163544535636902
1714065756808501200,7.240501220703125,0.06914424896240234,0.01910501718521118,0.05694130063056946
1714065756818380000,7.250380126953125,0.08447074890136719,0.030731558799743652,0.07268005609512329
1714065756828259800,7.260259765625,0.08306598663330078,0.028039246797561646,0.06920519471168518
1714065756838140200,7.27014013671875,0.07462215423583984,0.02539178729057312,0.05872562527656555
1714065756848020000,7.28002001953125,0.07102489471435547,0.03455597162246704,0.06030559539794922
1714065756857898800,7.289898681640625,0.07219505310058594,0.024737298488616943,0.04538381099700928
1714065756867778300,7.2997783203125,0.05922412872314453,0.03627011179924011,0.05884328484535217
1714065756877659000,7.309658935546875,0.07000255584716797,0.0380760133266449,0.05336278676986694
1714065756887538700,7.31953857421875,0.057068824768066406,0.021136194467544556,0.04785570502281189
1714065756897417500,7.32941748046875,0.04905414581298828,0.03037133812904358,0.044908612966537476
1714065756907297000,7.339297119140625,0.05530261993408203,0.048872917890548706,0.04895928502082825
1714065756917177600,7.349177490234375,0.07085990905761719,0.03881579637527466,0.043643563985824585
1714065756927057200,7.35905712890625,0.04848957061767578,0.033634692430496216,0.03370809555053711
1714065756936936000,7.36893603515625,0.05710124969482422,0.03560250997543335,0.026174426078796387
1714065756946815700,7.378815673828125,0.06085681915283203,0.03518339991569519,0.03536370396614075
1714065756956696300,7.3886962890625,0.062195777893066406,0.03947612643241882,0.046750158071517944
1714065756966575900,7.398575927734375,0.06116199493408203,0.031933486461639404,0.034294694662094116
1714065756976454700,7.40845458984375,0.05072498321533203,0.019808173179626465,0.026873260736465454
1714065756986334500,7.41833447265625,0.05929088592529297,0.03601369261741638,0.04782193899154663
1714065756996214800,7.42821484375,0.05830192565917969,0.04500463604927063,0.035462796688079834
1714065757006094600,7.438094482421875,0.04791259765625,0.02559533715248108,0.044497400522232056
1714065757015973400,7.447973388671875,0.037695884704589844,0.03240928053855896,0.04161429405212402
1714065757025853000,7.45785302734375,0.04883766174316406,0.04616871476173401,0.04583802819252014
1714065757035733500,7.4677333984375,0.057442665100097656,0.040861666202545166,0.04751524329185486
1714065757045613300,7.47761328125,0.056484222412109375,0.030938267707824707,0.04928642511367798
1714065757055492000,7.4874921875,0.05789661407470703,0.026006758213043213,0.032312631607055664
1714065757065371600,7.49737158203125,0.0569305419921875,0.032810330390930176,0.041399866342544556
1714065757075252200,7.507252197265625,0.0583343505859375,0.023021191358566284,0.05739825963973999
1714065757085131800,7.5171318359375,0.06207466125488281,0.03929135203361511,0.051824092864990234
1714065757095010600,7.527010498046875,0.05632591247558594,0.012796670198440552,0.04410681128501892
1714065757104890400,7.536890380859375,0.053035736083984375,0.031587809324264526,0.0458129346370697
1714065757114771000,7.54677099609375,0.059210777282714844,0.0264093279838562,0.04761269688606262
1714065757124650500,7.556650390625,0.05586814880371094,0.03085210919380188,0.049382418394088745
1714065757134529300,7.566529296875,0.04316520690917969,0.03286668658256531,0.048768460750579834
1714065757144409000,7.5764091796875,0.056571006774902344,0.01836833357810974,0.036393821239471436
1714065757154289400,7.586289306640625,0.04856395721435547,0.027653604745864868,0.03599640727043152
1714065757164169200,7.596169189453125,0.052466392517089844,0.02736365795135498,0.05196294188499451
1714065757174048000,7.606048095703125,0.0492401123046875,0.029436439275741577,0.04647940397262573
1714065757183927800,7.615927734375,0.04371356964111328,0.022057920694351196,0.048149943351745605
1714065757193808100,7.62580810546875,0.047692298889160156,0.017152845859527588,0.05226126313209534
1714065757203688000,7.63568798828125,0.05866432189941406,0.023982256650924683,0.037470489740371704
1714065757213566700,7.645566650390625,0.04120922088623047,0.00492367148399353,0.036936938762664795
1714065757223446300,7.6554462890625,0.045233726501464844,0.02867656946182251,0.04594740271568298
1714065757233326800,7.665326904296875,0.03977394104003906,0.02366495132446289,0.045272618532180786
1714065757243206400,7.675206298828125,0.046176910400390625,0.025799423456192017,0.03990066051483154
1714065757253085200,7.685085205078125,0.033638954162597656,0.01612737774848938,0.04168081283569336
1714065757262965000,7.694965087890625,0.03072357177734375,0.006616562604904175,0.03413289785385132
1714065757272845600,7.704845458984375,0.03727245330810547,0.011389464139938354,0.03377336263656616
1714065757282725000,7.71472509765625,0.04371356964111328,0.01843702793121338,0.040482401847839355
1714065757292604000,7.72460400390625,0.03592109680175781,0.015946537256240845,0.03059646487236023
1714065757302483700,7.734483642578125,0.047089576721191406,0.013383030891418457,0.030295908451080322
1714065757312364000,7.744364013671875,0.03689002990722656,0.022751599550247192,0.027527838945388794
1714065757322243800,7.754243896484375,0.024503707885742188,0.02960982918739319,0.02021583914756775
1714065757332122600,7.76412255859375,0.03586578369140625,0.026933133602142334,0.03656390309333801
1714065757342002400,7.77400244140625,0.03291606903076172,0.010179728269577026,0.03133717179298401
1714065757351882800,7.7838828125,0.011178970336914062,0.000768125057220459,0.03102433681488037
1714065757361762600,7.793762451171875,0.03689098358154297,0.024472147226333618,0.03295248746871948
1714065757371641300,7.803641357421875,0.012737274169921875,0.026593327522277832,0.02543175220489502
1714065757381521000,7.81352099609375,0.021941184997558594,0.023970752954483032,0.027571558952331543
1714065757391401500,7.8234013671875,0.0309906005859375,0.021391957998275757,0.017904698848724365
1714065757401281000,7.833281005859375,0.021060943603515625,0.02356448769569397,0.024760007858276367
1714065757411159800,7.843159912109375,0.023067474365234375,0.01392984390258789,0.01502162218093872
1714065757421039600,7.85303955078125,0.015619277954101562,0.02093517780303955,0.012626558542251587
1714065757430920200,7.862920166015625,0.017711639404296875,0.008990198373794556,0.017334014177322388
1714065757440799700,7.8727998046875,0.007998466491699219,0.018432050943374634,0.017254620790481567
1714065757450678500,7.882678466796875,0.024347305297851562,0.015945523977279663,0.019412338733673096
1714065757460558300,7.892558349609375,0.019235610961914062,0.020559251308441162,0.030947089195251465
1714065757470438700,7.902438720703125,0.01891803741455078,0.02509605884552002,0.018747657537460327
1714065757480318500,7.912318359375,0.011539459228515625,0.029561102390289307,0.025707334280014038
1714065757490197200,7.922197265625,0.01605510711669922,0.0292433500289917,0.023134201765060425
1714065757500077000,7.9320771484375,0.022849082946777344,0.02410408854484558,0.022839754819869995
1714065757509957400,7.941957275390625,0.03188323974609375,0.011987864971160889,0.015487581491470337
1714065757519837200,7.951837158203125,0.010167121887207031,0.021379798650741577,0.010612189769744873
1714065757529716000,7.961716064453125,0.012351036071777344,0.016490072011947632,0.03183263540267944
1714065757539595500,7.971595458984375,0.02626800537109375,0.021094679832458496,0.024445295333862305
1714065757549476000,7.98147607421875,0.011705398559570312,0.018563896417617798,0.028955847024917603
1714065757559355600,7.991355712890625,0.018571853637695312,0.020783662796020508,0.0192660391330719
1714065757569234700,8.001234619140625,0.027681350708007812,0.02532064914703369,0.01668187975883484
1714065757579114200,8.0111142578125,0.02486419677734375,0.025073617696762085,0.026030242443084717
1714065757588994800,8.020994873046876,0.019741058349609375,0.02012231945991516,0.02345183491706848
1714065757598874400,8.030874267578126,0.021764755249023438,0.027024567127227783,0.027978986501693726
1714065757608753200,8.040753173828126,0.014338493347167969,0.014978200197219849,0.027722269296646118
1714065757618633000,8.050633056640624,0.02116107940673828,0.033737123012542725,0.029824048280715942
1714065757628513500,8.060513427734374,0.018457412719726562,0.02157500386238098,0.02235180139541626
1714065757638393000,8.07039306640625,0.027568817138671875,0.026098817586898804,0.019716233015060425
1714065757648272000,8.08027197265625,0.022403717041015625,0.011713683605194092,0.03124973177909851
1714065757658151700,8.090151611328125,0.03145122528076172,0.023464471101760864,0.023757517337799072
1714065757668032000,8.100031982421875,0.026215553283691406,0.02324455976486206,0.016504883766174316
1714065757677911800,8.109911865234375,0.018713951110839844,0.01596960425376892,0.016439497470855713
1714065757687790600,8.11979052734375,0.027822494506835938,0.018232673406600952,0.03979867696762085
1714065757697670100,8.129670166015625,0.02971172332763672,0.022808372974395752,0.03698718547821045
1714065757707550700,8.13955078125,0.029214859008789062,0.020249128341674805,0.022455275058746338
1714065757717430300,8.14943017578125,0.03343391418457031,0.020086705684661865,0.0317075252532959
1714065757727309300,8.159309326171876,0.03287506103515625,0.019926995038986206,0.026680350303649902
1714065757737188900,8.16918896484375,0.018199920654296875,0.02212420105934143,0.031153827905654907
1714065757747069400,8.1790693359375,0.027313232421875,0.01721826195716858,0.03319483995437622
1714065757756949000,8.188948974609374,0.026856422424316406,0.012398064136505127,0.030497193336486816
1714065757766827800,8.198827880859374,0.028760910034179688,0.01942908763885498,0.025490224361419678
1714065757776707600,8.20870751953125,0.02827930450439453,0.01457202434539795,0.027629345655441284
1714065757786588000,8.218587890625,0.025452613830566406,0.00037911534309387207,0.025024473667144775
1714065757796467700,8.2284677734375,0.017963409423828125,0.0029021501541137695,0.02717137336730957
1714065757806346500,8.238346435546875,0.022375106811523438,0.007737308740615845,0.02210134267807007
1714065757816226300,8.248226318359375,0.014941215515136719,0.005429327487945557,0.024178415536880493
1714065757826106600,8.258106689453125,0.01939868927001953,0.007868200540542603,0.021631062030792236
1714065757835986400,8.267986328125,0.014369964599609375,0.007912218570709229,0.03313279151916504
1714065757845865200,8.277865234375,0.01884174346923828,0.017368316650390625,0.01854291558265686
1714065757855744800,8.287744873046876,0.020880699157714844,0.007833302021026611,0.01844000816345215
1714065757865625300,8.297625244140624,0.01818084716796875,0.014940530061721802,0.015869736671447754
1714065757875505000,8.3075048828125,0.0037508010864257812,0.012512534856796265,0.02287769317626953
1714065757885384000,8.317384033203124,0.0154571533203125,0.0030623674392700195,0.02035200595855713
1714065757895263500,8.327263427734374,0.008134841918945312,0.007894903421401978,0.017868489027023315
1714065757905144000,8.33714404296875,0.012704849243164062,0.0032261908054351807,0.01071426272392273
1714065757915023600,8.347023681640625,0.0030794143676757812,0.005701839923858643,0.012981176376342773
1714065757924902400,8.35690234375,0.007739067077636719,0.017552942037582397,0.017564445734024048
1714065757934782200,8.3667822265625,0.000545501708984375,0.005664646625518799,0.019835740327835083
1714065757944662500,8.37666259765625,0.012300491333007812,0.012685447931289673,0.010294497013092041
1714065757954542300,8.386542236328125,0.005032539367675781,0.0032324492931365967,0.010332822799682617
1714065757964421000,8.396421142578125,0.0025920867919921875,0.01277056336402893,0.017433077096939087
1714065757974301000,8.406301025390626,-0.0021610260009765625,0.003312140703201294,0.005577683448791504
1714065757984181200,8.41618115234375,0.007288932800292969,0.0010739564895629883,0.015107691287994385
1714065757994061000,8.42606103515625,0.0071659088134765625,0.015356451272964478,0.0009405910968780518
1714065758003939800,8.43593994140625,-0.007076263427734375,0.017629921436309814,0.005724549293518066
1714065758013819400,8.4458193359375,0.004811286926269531,0.017511308193206787,0.010547399520874023
1714065758023700000,8.455699951171875,0.009436607360839844,0.02209913730621338,0.015286177396774292
1714065758033579500,8.46557958984375,0.00457000732421875,0.0219060480594635,0.019949674606323242
1714065758043458300,8.475458251953125,-0.0025701522827148438,0.014653563499450684,0.0033476650714874268
1714065758053338000,8.485338134765625,0.0045375823974609375,0.009876161813735962,0.01044568419456482
1714065758063218700,8.49521875,0.0068149566650390625,0.02388933300971985,0.01035916805267334
1714065758073098200,8.50509814453125,0.006699562072753906,0.0236663818359375,0.005688011646270752
1714065758082977000,8.51497705078125,0.013648033142089844,0.023447155952453613,0.008157283067703247
1714065758092856800,8.52485693359375,0.013419151306152344,0.027936071157455444,0.012935936450958252
1714065758102737200,8.534737060546876,0.013196945190429688,0.01598939299583435,0.010572314262390137
1714065758112617000,8.544616943359374,0.008266448974609375,0.02060261368751526,0.015310734510421753
1714065758122495700,8.554495849609374,0.008127212524414062,0.01808023452758789,0.01291126012802124
1714065758132375600,8.56437548828125,0.015056610107421875,0.020304381847381592,0.010429412126541138
1714065758142255900,8.574255859375,0.007740974426269531,0.024849653244018555,0.015173941850662231
1714065758152135700,8.5841357421875,0.007610321044921875,0.005777150392532349,0.008068352937698364
1714065758162014500,8.594014404296875,0.009835243225097656,0.022335469722747803,0.012852221727371216
1714065758171894000,8.60389404296875,0.014377593994140625,0.02213844656944275,0.00813952088356018
1714065758181774600,8.613774658203125,0.025908470153808594,0.014878153800964355,0.017626941204071045
1714065758191654100,8.623654052734375,0.013707160949707031,0.02421829104423523,0.022129178047180176
1714065758201533000,8.633532958984375,0.02289867401123047,0.014573097229003906,0.024205833673477173
1714065758211412700,8.643412841796875,0.017807960510253906,0.014505475759506226,0.019303947687149048
1714065758221293300,8.653293212890626,0.019863128662109375,0.02385583519935608,0.026254802942276
1714065758231172900,8.6631728515625,0.01717662811279297,0.014212727546691895,0.02131512761116028
1714065758241051600,8.6730517578125,0.01453399658203125,0.007088571786880493,0.021169811487197876
1714065758250931500,8.682931396484374,0.0072269439697265625,0.007145732641220093,0.023381143808364868
1714065758260811800,8.692811767578124,0.023590087890625,0.0048437416553497314,0.023079097270965576
1714065758270691600,8.702691650390625,0.020845413208007812,0.01670929789543152,0.013368964195251465
1714065758280570400,8.7125703125,0.022855758666992188,0.0071853697299957275,0.022650539875030518
1714065758290450000,8.722449951171875,0.013051986694335938,0.007122218608856201,0.02483728528022766
1714065758300330500,8.73233056640625,0.017540931701660156,-0.002237945795059204,0.026987552642822266
1714065758310210000,8.7422099609375,0.031371116638183594,0.012099891901016235,0.029101967811584473
1714065758320089000,8.752089111328125,0.009657859802246094,0.002656787633895874,0.017055928707122803
1714065758329968600,8.76196875,0.02597808837890625,0.01467752456665039,0.019335895776748657
1714065758339849200,8.77184912109375,0.011418342590332031,0.0028373003005981445,0.02393209934234619
1714065758349728800,8.781728759765626,-0.0005445480346679688,0.007673770189285278,0.019034862518310547
1714065758359607600,8.791607666015626,0.008882522583007812,0.005485713481903076,0.007156640291213989
1714065758369487400,8.8014873046875,0.013446807861328125,0.0008612573146820068,0.009482920169830322
1714065758379367700,8.81136767578125,0.008516311645507812,-0.0036861300468444824,0.02589559555053711
1714065758389247500,8.82124755859375,0.010723114013671875,0.015265494585037231,0.01390308141708374
1714065758399126300,8.831126220703124,0.0058383941650390625,0.008119851350784302,0.02082154154777527
1714065758409006000,8.841006103515625,0.0010309219360351562,0.012868285179138184,0.011267811059951782
1714065758418886400,8.850886474609375,0.0010166168212890625,0.005762606859207153,0.006459265947341919
1714065758428766200,8.86076611328125,0.010415077209472656,0.01761290431022644,0.008915901184082031
1714065758438645000,8.87064501953125,-0.006239891052246094,0.010432153940200806,0.011331528425216675
1714065758448524500,8.880524658203125,-0.0037832260131835938,0.015141993761062622,0.004290133714675903
1714065758458405000,8.890405029296875,-0.0013637542724609375,0.00800246000289917,0.011372566223144531
1714065758468284700,8.90028466796875,0.0010156631469726562,0.005690246820449829,-0.0004966259002685547
1714065758478163500,8.91016357421875,-0.0037107467651367188,0.012829363346099854,0.013843178749084473
1714065758488043300,8.920043212890626,0.003414154052734375,0.017618000507354736,0.00911414623260498
1714065758497923800,8.929923828125,-0.008410453796386719,0.005728781223297119,-0.002717435359954834
1714065758507803400,8.939803466796874,0.003498077392578125,0.008162885904312134,-0.00717046856880188
1714065758517682200,8.94968212890625,-0.0012693405151367188,0.02232736349105835,0.004930049180984497
1714065758527562000,8.95956201171875,0.005812644958496094,0.015068024396896362,-0.0067130327224731445
1714065758537442300,8.9694423828125,0.010422706604003906,0.02205488085746765,0.00537988543510437
1714065758547322000,8.979322021484375,0.0008296966552734375,0.012445896863937378,0.0031460821628570557
1714065758557201000,8.989200927734375,-0.0038928985595703125,0.021711885929107666,0.017310142517089844
1714065758567080400,8.99908056640625,-0.001476287841796875,0.01210862398147583,0.0031065046787261963
1714065758576961000,9.0089609375,0.0009050369262695312,0.019144803285598755,0.007854461669921875
1714065758586840600,9.018840576171876,0.0008840560913085938,0.016528159379959106,0.01970463991165161
1714065758596719400,9.02871923828125,-0.0038366317749023438,0.021136432886123657,0.0076965391635894775
1714065758606599200,9.03859912109375,-0.0014171600341796875,0.009307324886322021,0.017195135354995728
1714065758616479700,9.048479736328124,0.008020401000976562,0.016390174627304077,0.007701843976974487
1714065758626359300,9.058359375,0.010243415832519531,0.009229809045791626,0.012373238801956177
1714065758636238000,9.068238037109374,0.007719993591308594,0.007015854120254517,0.014731287956237793
1714065758646118000,9.078117919921874,0.0028848648071289062,0.011778652667999268,0.021636009216308594
1714065758655998200,9.087998291015625,-0.0018720626831054688,0.011638998985290527,0.01901257038116455
1714065758665878000,9.0978779296875,0.014636993408203125,0.009266197681427002,0.009488970041275024
1714065758675756800,9.1077568359375,0.028519630432128906,0.009287118911743164,0.01883891224861145
1714065758685636600,9.11763671875,-0.014328956604003906,0.00930774211883545,0.011553674936294556
1714065758695517000,9.127516845703125,0.02827930450439453,0.01156345009803772,0.020987987518310547
1714065758705396500,9.137396484375,0.018393516540527344,0.004483520984649658,0.00660434365272522
1714065758715275500,9.147275634765625,0.008667945861816406,0.0092926025390625,0.025537967681884766
1714065758725155000,9.157155029296876,-0.007958412170410156,0.0022505223751068115,0.02061399817466736
1714065758735035600,9.16703564453125,0.018073081970214844,0.007096827030181885,0.015653401613235474
1714065758744915200,9.176915283203124,0.008353233337402344,0.01422053575515747,0.02502310276031494
1714065758754794000,9.1867939453125,0.008212089538574219,0.00003376603126525879,0.015399336814880371
1714065758764673800,9.196673828125,0.02455615997314453,0.004917025566101074,0.027005046606063843
1714065758774554000,9.20655419921875,0.010021209716796875,0.012073099613189697,0.0220566987991333
1714065758784434000,9.216433837890625,0.01691436767578125,0.0027492940425872803,0.014955371618270874
1714065758794312700,9.226312744140625,0.011922836303710938,0.005110263824462891,0.012439608573913574
1714065758804192300,9.236192138671875,0.0023059844970703125,0.0003733634948730469,0.01703205704689026
1714065758814072800,9.24607275390625,-0.009501457214355469,0.0006613731384277344,0.014604121446609497
1714065758823952600,9.25595263671875,0.007138252258300781,-0.0015284419059753418,0.012097924947738647
1714065758833831400,9.26583154296875,-0.002399444580078125,-0.0013275444507598877,0.007398039102554321
1714065758843711000,9.2757109375,-0.002361297607421875,0.01299518346786499,0.0145474374294281
1714065758853591600,9.285591552734376,-0.009386062622070312,0.0035372674465179443,0.005098313093185425
1714065758863471000,9.29547119140625,0.0025396347045898438,0.01071631908416748,0.005223453044891357
1714065758873350000,9.305349853515626,-0.006920814514160156,0.010713130235671997,0.010054945945739746
1714065758883229700,9.315229736328124,-0.0068073272705078125,0.008359849452972412,0.010101169347763062
1714065758893110000,9.325110107421875,-0.004342079162597656,0.01310431957244873,0.000726163387298584
1714065758902989800,9.33498974609375,-0.006621360778808594,0.010707169771194458,0.0031596124172210693
1714065758912868600,9.34486865234375,-0.006508827209472656,0.0036415159702301025,0.005552470684051514
1714065758922748400,9.35474853515625,0.0006589889526367188,0.010818839073181152,0.008024275302886963
1714065758932628700,9.364628662109375,-0.0017080307006835938,0.017876505851745605,0.003392249345779419
1714065758942508500,9.374508544921875,-0.008744239807128906,0.01775398850440979,-0.005870938301086426
1714065758952387300,9.38438720703125,-0.010950088500976562,0.012929141521453857,0.0013845264911651611
1714065758962267000,9.394266845703125,-0.0037069320678710938,0.024660050868988037,0.00392577052116394
1714065758972147500,9.4041474609375,-0.008356094360351562,0.024424463510513306,0.0017162561416625977
1714065758982027000,9.414027099609376,-0.0035104751586914062,0.031255364418029785,-0.0004564225673675537
1714065758991905800,9.42390576171875,-0.015224456787109375,0.012076258659362793,-0.00730133056640625
1714065759001785600,9.43378564453125,-0.0008440017700195312,0.03323817253112793,0.007036864757537842
1714065759011666000,9.443666015625,0.010947227478027344,0.028265953063964844,0.0046530961990356445
1714065759021545700,9.453545654296875,-0.0104217529296875,0.02090764045715332,0.007021069526672363
1714065759031424500,9.463424560546875,0.0038709640502929688,0.01826569437980652,0.009472042322158813
1714065759041304300,9.47330419921875,0.0038042068481445312,0.015782445669174194,0.0071700215339660645
1714065759051184600,9.4831845703125,0.0013837814331054688,0.022757411003112793,0.011969059705734253
1714065759061064200,9.493064208984375,0.008421897888183594,0.017845124006271362,0.02375069260597229
1714065759070943200,9.502943115234375,0.015345573425292969,0.0177190899848938,0.018734127283096313
1714065759080822800,9.51282275390625,0.008025169372558594,0.01759517192840576,0.011565744876861572
1714065759090703400,9.522703369140626,0.012601852416992188,0.01983150839805603,0.025589555501937866
1714065759100583000,9.5325830078125,0.010036468505859375,0.019676417112350464,0.03478994965553284
1714065759110461700,9.542461669921876,0.014575004577636719,0.0053987205028533936,0.022649258375167847
1714065759120341500,9.552341552734376,0.004917144775390625,0.005480140447616577,0.024713635444641113
1714065759130221800,9.562221923828124,-0.0022249221801757812,0.000855863094329834,0.019684702157974243
1714065759140101600,9.5721015625,0.007227897644042969,0.00572541356086731,0.024275153875350952
1714065759149980400,9.58198046875,0.0141448974609375,0.0032136738300323486,0.0222015380859375
1714065759159860000,9.59185986328125,0.5807876586914062,-0.10326367616653442,0.13981497287750244
1714065759169740500,9.601740478515625,0.5893583297729492,-0.2402454912662506,0.22924423217773438
1714065759179620400,9.611620361328125,-1.016880989074707,-0.13375002145767212,-0.5437209010124207
1714065759189499100,9.6214990234375,0.9582042694091797,0.16853702068328857,0.44773080945014954
1714065759199378700,9.631378662109375,-1.1506242752075195,0.11027690768241882,-0.45831674337387085
1714065759209259300,9.64125927734375,-0.19212913513183594,-0.0037742555141448975,-0.5015535354614258
1714065759219138800,9.651138916015626,0.5146980285644531,-0.2688407003879547,-0.48043394088745117
1714065759229017600,9.661017578125,-0.08729362487792969,-0.5484188795089722,-0.7886331677436829
1714065759238897400,9.6708974609375,-0.2624053955078125,-0.4527651071548462,-0.9599239826202393
1714065759248777700,9.68077783203125,0.4079933166503906,-0.16818588972091675,-0.7460064888000488
1714065759258657500,9.690657470703124,0.33963871002197266,-0.18263670802116394,-0.736483633518219
1714065759268536300,9.700536376953124,-0.4783802032470703,-0.1440007984638214,-0.5310314893722534
1714065759278416000,9.710415771484374,-0.4492654800415039,0.40004488825798035,1.2616528272628784
1714065759288296400,9.72029638671875,-0.24984073638916016,1.577252984046936,4.06226110458374
1714065759298176000,9.730176025390625,-0.13199615478515625,0.7291097044944763,1.2521557807922363
1714065759308055000,9.740054931640625,0.31020641326904297,-0.30704930424690247,-0.4764631986618042
1714065759317934600,9.7499345703125,0.3786048889160156,-0.25500020384788513,-0.3691166043281555
1714065759327815200,9.759815185546875,-0.15969467163085938,0.08393976092338562,0.4845436215400696
1714065759337694700,9.76969482421875,-0.1736011505126953,-0.036204636096954346,-0.12900227308273315
1714065759347573500,9.779573486328125,-0.029852867126464844,0.07979050278663635,-0.08760972321033478
1714065759357453300,9.789453369140626,0.06337928771972656,0.19235855340957642,0.1821792721748352
1714065759367333600,9.799333740234376,-0.020330429077148438,0.028357386589050293,0.043422773480415344
1714065759377213400,9.80921337890625,-0.12287235260009766,-0.024293839931488037,0.11145754158496857
1714065759387092200,9.81909228515625,-0.2107400894165039,0.057616546750068665,0.1452288031578064
1714065759396972000,9.828971923828124,0.08368492126464844,0.06063990294933319,0.003647640347480774
1714065759406852400,9.838852294921875,0.1743030548095703,0.06436020135879517,0.05467747151851654
1714065759416732000,9.84873193359375,0.15716838836669922,0.009434044361114502,0.08744218945503235
1714065759426610700,9.858610595703125,0.05885124206542969,-0.0506073534488678,0.07536067068576813
1714065759436490500,9.868490478515625,0.12551593780517578,-0.011049419641494751,0.1070069670677185
1714065759446371000,9.87837109375,0.0940704345703125,0.07972116768360138,0.1765134632587433
1714065759456250600,9.888250732421875,-0.09247016906738281,0.1280999779701233,0.1275947540998459
1714065759466129400,9.89812939453125,-0.28082942962646484,0.08838821947574615,0.030324622988700867
1714065759476009200,9.90800927734375,-0.20833396911621094,0.03676062822341919,-0.06225457787513733
1714065759485889500,9.9178896484375,0.1266193389892578,-0.016046196222305298,0.02262197434902191
1714065759495769300,9.927769287109374,0.3173236846923828,-0.04808667302131653,0.11076608300209045
1714065759505648000,9.937648193359376,0.09198379516601562,-0.05235901474952698,0.11295127868652344
1714065759515527700,9.947527587890624,-0.1590108871459961,0.054660916328430176,0.11009149253368378
1714065759525408300,9.957408203125,-0.02010822296142578,0.12629452347755432,0.16035374999046326
1714065759535287800,9.967287841796875,0.01815509796142578,0.073062464594841,0.1378535032272339
1714065759545166600,9.97716650390625,-0.29459667205810547,0.1244955062866211,0.3342643976211548
1714065759555046400,9.98704638671875,-0.26258182525634766,0.2307470440864563,0.47689181566238403
1714065759564927000,9.996927001953125,0.1633586883544922,0.07782240211963654,0.10353747010231018
1714065759574806500,10.006806640625,-0.011160850524902344,-0.017973989248275757,-0.08878524601459503
1714065759584685300,10.016685302734375,-0.09685325622558594,-0.002068042755126953,-0.0791235864162445
1714065759594565000,10.026565185546875,0.06599044799804688,-0.014564365148544312,-0.09125354886054993
1714065759604445400,10.036445556640626,0.26172542572021484,-0.008412003517150879,0.031964272260665894
1714065759614325200,10.0463251953125,0.2586250305175781,-0.02439779043197632,0.0893239974975586
1714065759624204000,10.0562041015625,0.14561843872070312,-0.03413289785385132,0.052112877368927
1714065759634083600,10.06608349609375,0.05674266815185547,-0.06816151738166809,-0.08452710509300232
1714065759643964200,10.075964111328124,0.0803079605102539,-0.04029923677444458,-0.16293522715568542
1714065759653843700,10.08584375,-0.06569766998291016,0.006899088621139526,-0.14687533676624298
1714065759663722500,10.095722412109374,-0.07279109954833984,0.07884293794631958,-0.002116084098815918
1714065759673602300,10.105602294921875,-0.015377044677734375,0.06296297907829285,0.06155961751937866
1714065759683483000,10.11548291015625,-0.02495861053466797,0.013565301895141602,0.06942287087440491
1714065759693362400,10.125362548828125,0.07291793823242188,0.00905996561050415,0.10640168190002441
1714065759703241200,10.1352412109375,0.09647846221923828,0.04430839419364929,0.1295466125011444
1714065759713121000,10.14512109375,0.07456493377685547,0.04292061924934387,0.08183000981807709
1714065759723001300,10.15500146484375,0.11712932586669922,0.04545961320400238,0.097638338804245
1714065759732881200,10.164881103515626,0.0664377212524414,0.011562347412109375,0.13489294052124023
1714065759742760000,10.174760009765626,-0.03663825988769531,-0.027373135089874268,0.04405584931373596
1714065759752639500,10.184639404296876,-0.0200347900390625,-0.0016008615493774414,0.041458114981651306
1714065759762520000,10.19452001953125,0.020394325256347656,0.021606147289276123,0.027538537979125977
1714065759772399600,10.204399658203124,0.053531646728515625,0.05382266640663147,0.08840405941009521
1714065759782278400,10.2142783203125,0.087677001953125,0.06271849572658539,0.0913294106721878
1714065759792158200,10.224158203125,0.1376810073852539,0.025070756673812866,0.07832084596157074
1714065759802038800,10.234038818359375,0.1821117401123047,0.06580005586147308,0.17083941400051117
1714065759811918300,10.24391845703125,0.046912193298339844,0.0688336044549942,0.17229577898979187
1714065759821797000,10.253797119140625,-0.06242084503173828,0.07367050647735596,0.13306787610054016
1714065759831677000,10.263677001953125,-0.14630889892578125,0.0933636873960495,0.15602314472198486
1714065759841557200,10.27355712890625,-0.2922658920288086,0.033181414008140564,0.10702185332775116
1714065759851437000,10.28343701171875,-0.3839254379272461,0.05930648744106293,-0.029286175966262817
1714065759861315800,10.29331591796875,-0.4457674026489258,-0.004334807395935059,-0.18065893650054932
1714065759871195400,10.3031953125,-0.5018043518066406,-0.03322973847389221,-0.3092866837978363
1714065759881076000,10.313075927734374,-0.2437448501586914,-0.1059466302394867,-0.0652676671743393
1714065759890955500,10.32295556640625,-0.20877933502197266,-0.15739262104034424,-0.036331698298454285
1714065759900834300,10.332834228515624,0.004652976989746094,-0.16898292303085327,-0.1668655276298523
1714065759910714000,10.342714111328124,0.2568788528442383,0.06018701195716858,0.09967906773090363
1714065759920594700,10.3525947265625,0.21760082244873047,0.16883015632629395,0.27757036685943604
1714065759930474200,10.36247412109375,0.20246505737304688,0.07507100701332092,0.05439743399620056
1714065759940353000,10.37235302734375,0.19457149505615234,-0.02033054828643799,0.060466453433036804
1714065759950232800,10.38223291015625,0.5091447830200195,-0.03275066614151001,0.22308658063411713
1714065759960113200,10.392113037109375,0.4486980438232422,0.02843545377254486,0.14498239755630493
1714065759969993000,10.401992919921875,0.14435768127441406,0.003623872995376587,-0.0070008039474487305
1714065759979871700,10.411871826171875,-0.1336841583251953,-0.0638270378112793,-0.014707282185554504
1714065759989751300,10.421751220703126,-0.1339282989501953,-0.04200339317321777,0.10279498994350433
1714065759999632000,10.4316318359375,-0.09646129608154297,-0.12384095788002014,0.2734542191028595
1714065760009511400,10.441511474609374,-0.09725284576416016,-0.4732394218444824,0.3736072778701782
1714065760019390200,10.45139013671875,-0.22507381439208984,-0.7601498365402222,0.36074593663215637
1714065760029270000,10.46127001953125,-0.22353363037109375,-0.7817368507385254,0.32467854022979736
1714065760039150300,10.471150390625,0.034567832946777344,-0.7186682820320129,0.34853941202163696
1714065760049030100,10.481030029296875,0.292938232421875,-0.2661373019218445,0.42610466480255127
1714065760058909000,10.490908935546875,0.459686279296875,0.1173378974199295,0.5018745064735413
1714065760068788700,10.500788818359375,0.43278980255126953,0.25543707609176636,0.3078170120716095
1714065760078669000,10.5106689453125,0.2885704040527344,0.33461931347846985,0.19018292427062988
1714065760088548600,10.520548583984375,0.17738628387451172,0.3444443345069885,0.21891161799430847
1714065760098427600,10.530427734375,0.25401782989501953,0.18269984424114227,0.22045910358428955
1714065760108307200,10.54030712890625,0.2751750946044922,0.0650770515203476,0.1932135820388794
1714065760118187800,10.550187744140626,0.14533138275146484,-0.024797216057777405,0.141192227602005
1714065760128067300,10.5600673828125,0.14484786987304688,-0.0829908549785614,0.02833324670791626
1714065760137946000,10.569946044921876,-0.027294158935546875,0.15265068411827087,-0.33775264024734497
1714065760147826000,10.579825927734374,-0.37981700897216797,0.4970230460166931,-0.8911953568458557
1714065760157706200,10.589706298828125,-0.6907320022583008,0.8645336627960205,-0.7494869232177734
1714065760167586000,10.5995859375,-0.2219829559326172,0.9237267374992371,-0.2682410478591919
1714065760177464800,10.60946484375,-0.4889650344848633,0.9347705245018005,-0.8369153738021851
1714065760187344600,10.6193447265625,-0.9304838180541992,0.20541714131832123,-0.44161978363990784
1714065760197225000,10.629224853515625,0.13499069213867188,0.13523851335048676,0.11188161373138428
1714065760207104500,10.6391044921875,0.37749671936035156,-0.05343733727931976,0.07540768384933472
1714065760216983300,10.6489833984375,0.14276695251464844,-0.12115983664989471,0.07721346616744995
1714065760226863000,10.658863037109375,-0.17511844635009766,-0.3253774046897888,-0.20495262742042542
1714065760236743700,10.66874365234375,0.06551361083984375,0.006782326847314835,0.13521575927734375
1714065760246623200,10.678623291015626,0.3114938735961914,0.07207998633384705,-0.015231966972351074
1714065760256502000,10.688501953125,0.16019916534423828,0.12052176147699356,-0.02049940824508667
1714065760266381800,10.6983818359375,0.08677864074707031,-0.07123862206935883,-0.07265619933605194
1714065760276262100,10.70826220703125,0.08297157287597656,-0.1422823667526245,-0.19297510385513306
1714065760286142000,10.718141845703125,0.14998149871826172,-0.08384126424789429,-0.041311249136924744
1714065760296020700,10.728020751953125,0.2018604278564453,-0.09137652069330215,0.004792898893356323
1714065760305900300,10.737900390625,0.21035194396972656,-0.017243504524230957,0.1607186198234558
1714065760315780900,10.74778076171875,0.044189453125,0.015893682837486267,0.2605893015861511
1714065760325660400,10.757660400390625,-0.6675634384155273,0.05794478952884674,-0.035397499799728394
1714065760335539200,10.767539306640625,-0.6328525543212891,0.006618395447731018,-0.027440175414085388
1714065760345419000,10.7774189453125,-0.7987461090087891,0.10877133905887604,-0.01968224346637726
1714065760355299600,10.787299560546876,-0.5240392684936523,0.10014744102954865,0.030914306640625
1714065760365179100,10.79717919921875,-0.15993690490722656,0.10650473833084106,0.1704254150390625
1714065760375058000,10.807057861328126,-0.26094627380371094,0.11802785098552704,0.16273584961891174
1714065760384937700,10.816937744140626,-0.24237728118896484,0.06915074586868286,0.16141951084136963
1714065760394818000,10.826818115234374,-0.2310647964477539,0.05170083045959473,0.3480232059955597
1714065760404697900,10.83669775390625,-0.37772083282470703,0.16279859840869904,0.463537335395813
1714065760414576600,10.84657666015625,-0.06313419342041016,0.20986640453338623,0.40119993686676025
1714065760424456200,10.856456298828125,-0.13061904907226562,0.2736165225505829,0.27939990162849426
1714065760434336800,10.866336669921875,-0.4462862014770508,0.17941239476203918,0.018676578998565674
1714065760444216300,10.87621630859375,-0.5231637954711914,0.011835925281047821,-0.19715633988380432
1714065760454095000,10.88609521484375,-0.3135185241699219,-0.09003081917762756,-0.27015846967697144
1714065760463975000,10.895974853515625,0.050498008728027344,-0.07829803228378296,-0.187718465924263
1714065760473855200,10.905855224609375,1.166299819946289,0.10167381167411804,-0.15860363841056824
1714065760483735000,10.915735107421876,1.6607236862182617,-0.05059027671813965,-0.012218236923217773
1714065760493613800,10.92561376953125,2.0052013397216797,-0.6033337116241455,-0.1443425714969635
1714065760503493400,10.935493408203126,1.0038442611694336,-0.3527773320674896,-0.0068180859088897705
1714065760513374000,10.9453740234375,-0.3434305191040039,-0.08428902924060822,-0.06210598349571228
1714065760523253500,10.95525341796875,-0.7150697708129883,0.1510770320892334,0.10421967506408691
1714065760533132300,10.96513232421875,-0.3287515640258789,0.396976113319397,0.14584103226661682
1714065760543012000,10.97501220703125,-0.26573657989501953,0.19187447428703308,0.09410378336906433
1714065760552892700,10.984892578125,-0.2672586441040039,-0.0460038036108017,-0.028425395488739014
1714065760562772200,10.994772216796875,-0.1732034683227539,-0.18309074640274048,0.022020965814590454
1714065760572651000,11.004651123046875,0.33846282958984375,-0.02755865454673767,0.10062903165817261
1714065760582530800,11.01453076171875,0.7173233032226562,-0.015004545450210571,0.0006550252437591553
1714065760592411100,11.0244111328125,0.2641019821166992,-0.026515334844589233,0.04945364594459534
1714065760602290700,11.034290771484375,-0.09001731872558594,-0.05291128158569336,-0.04049691557884216
1714065760612169700,11.044169677734375,-0.1088724136352539,-0.03050932288169861,0.01677149534225464
1714065760622049300,11.05404931640625,-0.051255226135253906,0.032918304204940796,0.01921314001083374
1714065760631929900,11.063929931640626,0.12082195281982422,0.05940631031990051,0.05508226156234741
1714065760641809400,11.073809326171874,0.04650592803955078,0.047974035143852234,0.03342387080192566
1714065760651688200,11.083688232421874,-0.015446662902832031,-0.033983975648880005,0.009415745735168457
1714065760661568000,11.093568115234374,0.12606048583984375,-0.04724600911140442,-0.03749457001686096
1714065760671448300,11.1034482421875,0.09570503234863281,0.02622319757938385,0.007714569568634033
1714065760681328000,11.113328125,0.021135330200195312,0.05657316744327545,0.021690279245376587
1714065760691207000,11.12320703125,0.03963184356689453,0.05381333827972412,0.04014143347740173
1714065760701086700,11.133086669921875,0.1025400161743164,-0.003287374973297119,0.032503992319107056
1714065760710967000,11.142967041015625,0.06551647186279297,0.00624459981918335,0.0038060247898101807
1714065760720846600,11.1528466796875,0.05500602722167969,0.020326048135757446,0.015607714653015137
1714065760730725400,11.162725341796875,0.04467010498046875,0.05547498166561127,0.05086985230445862
1714065760740605200,11.172605224609375,0.03451728820800781,0.03612823784351349,0.038342058658599854
1714065760750485800,11.18248583984375,0.03159523010253906,0.01015976071357727,0.03555819392204285
1714065760760365300,11.192365234375,0.0428466796875,0.010520219802856445,0.02575811743736267
1714065760770244000,11.202244140625,0.03743267059326172,0.0013355910778045654,0.015999913215637207
1714065760780124000,11.2121240234375,0.027406692504882812,0.009016275405883789,0.051130861043930054
1714065760790004200,11.222004150390624,0.03166770935058594,-0.006972968578338623,0.05754426121711731
1714065760799884000,11.231884033203125,0.07586669921875,-0.04412025213241577,0.06644174456596375
1714065760809762800,11.2417626953125,-0.0007343292236328125,-0.031447023153305054,0.004328250885009766
1714065760819642400,11.251642333984375,-0.03838920593261719,-0.030511289834976196,-0.002478659152984619
1714065760829523000,11.26152294921875,0.04229927062988281,-0.01335248351097107,-0.0024678707122802734
1714065760839402500,11.271402587890625,0.010990142822265625,0.010705292224884033,0.06840860843658447
1714065760849281300,11.28128125,-0.015088081359863281,-0.02448892593383789,0.01804301142692566
1714065760859161000,11.2911611328125,0.06048774719238281,-0.00754094123840332,0.01571914553642273
1714065760869041400,11.30104150390625,0.019460678100585938,0.004526704549789429,-0.0032885968685150146
1714065760878921200,11.310921142578126,0.012073516845703125,0.011807113885879517,0.00403827428817749
1714065760888800000,11.320800048828126,0.05660057067871094,0.018729358911514282,0.02760404348373413
1714065760898679600,11.330679443359376,0.041530609130859375,0.030367091298103333,0.02264830470085144
1714065760908560100,11.34056005859375,0.029067039489746094,0.008966565132141113,0.015417784452438354
1714065760918439700,11.350439697265625,0.07566070556640625,0.02535298466682434,-0.001109004020690918
1714065760928318500,11.360318359375,0.05321025848388672,0.02510535717010498,0.008535802364349365
1714065760938198300,11.3701982421875,0.03584575653076172,0.03204295039176941,0.034499287605285645
1714065760948078600,11.38007861328125,0.05407905578613281,0.019912898540496826,0.01765453815460205
1714065760957958400,11.38995849609375,0.041405677795410156,0.005630820989608765,0.012861490249633789
1714065760967837200,11.399837158203125,0.028942108154296875,0.007947683334350586,0.019800841808319092
1714065760977716700,11.409716796875,0.04729461669921875,-0.0061349570751190186,0.026624590158462524
1714065760987597300,11.419597412109376,0.025321006774902344,0.015330106019973755,0.04745978116989136
1714065760997476900,11.429476806640626,0.010774612426757812,0.0012429356575012207,0.039815813302993774
1714065761007355600,11.439355712890626,0.010593414306640625,-0.012727946043014526,0.020528286695480347
1714065761017235500,11.4492353515625,0.005706787109375,-0.01469498872756958,0.025104224681854248
1714065761027116000,11.459115966796874,0.0009012222290039062,-0.014275044202804565,0.027249693870544434
1714065761036995600,11.46899560546875,0.005597114562988281,-0.004445284605026245,0.026886701583862305
1714065761046874400,11.478874267578124,0.007856369018554688,-0.004196196794509888,0.03606501221656799
1714065761056754200,11.488754150390625,0.010081291198730469,0.0031113922595977783,0.023784130811691284
1714065761066634500,11.498634521484375,0.007557868957519531,0.005588799715042114,0.00947222113609314
1714065761076514300,11.508514404296875,0.01920032501220703,0.0009622871875762939,0.016586601734161377
1714065761086392800,11.518392822265625,0.009466171264648438,0.008183896541595459,0.028172343969345093
1714065761096272600,11.528272705078125,0.0234375,0.020108044147491455,0.013665527105331421
1714065761106153200,11.5381533203125,0.030112266540527344,0.027010589838027954,0.006466299295425415
1714065761116032800,11.54803271484375,0.03196239471435547,0.02673548460006714,0.0018598437309265137
1714065761125911600,11.55791162109375,0.03142738342285156,0.03117336332798004,0.011455327272415161
1714065761135791400,11.567791259765626,0.042672157287597656,0.03318309783935547,0.0138283371925354
1714065761145671700,11.577671630859374,0.025480270385742188,0.035159334540367126,0.011453419923782349
1714065761155551500,11.587551513671874,0.043890953063964844,0.02062326669692993,0.013707935810089111
1714065761165430300,11.59743017578125,0.0384521484375,0.013510584831237793,0.013689219951629639
1714065761175309800,11.607309814453124,0.04016304016113281,0.011106371879577637,0.01367083191871643
1714065761185190400,11.6171904296875,0.02301311492919922,0.01815900206565857,0.018361181020736694
1714065761195070000,11.627070068359375,0.006152153015136719,-0.007864654064178467,0.02285480499267578
1714065761204948700,11.63694873046875,0.010760307312011719,-0.014621049165725708,0.020210862159729004
1714065761214828500,11.64682861328125,0.005869865417480469,-0.011848002672195435,0.02008381485939026
1714065761224708900,11.656708984375,-0.0036468505859375,-0.0044127702713012695,0.02231314778327942
1714065761234588700,11.666588623046875,-0.0059413909912109375,-0.006518274545669556,0.02450522780418396
1714065761244467500,11.676467529296875,0.0012187957763671875,0.000828087329864502,0.026660799980163574
1714065761254347000,11.686346923828125,-0.005863189697265625,-0.006077200174331665,0.021596044301986694
1714065761264227600,11.6962275390625,-0.012825965881347656,-0.00580480694770813,0.021324098110198975
1714065761274107100,11.706107177734374,-0.014964103698730469,-0.005532890558242798,0.025768309831619263
1714065761283986000,11.71598583984375,-0.005301475524902344,-0.005265533924102783,0.018485993146896362
1714065761293865700,11.72586572265625,0.0065593719482421875,0.004414200782775879,0.008852362632751465
1714065761303746000,11.73574609375,0.011156082153320312,0.018640995025634766,0.00891461968421936
1714065761313625900,11.7456259765625,0.015674591064453125,0.018505483865737915,0.006621658802032471
1714065761323504600,11.755504638671875,0.013056755065917969,0.03014315664768219,-0.000341564416885376
1714065761333384200,11.76538427734375,0.022260665893554688,0.029934510588645935,0.0021095573902130127
1714065761343264800,11.7752646484375,0.02424144744873047,0.029606744647026062,0.004635155200958252
1714065761353144300,11.785144287109375,0.028547286987304688,0.022225886583328247,0.007003366947174072
1714065761363023000,11.795023193359375,0.02807331085205078,0.026739001274108887,0.014040440320968628
1714065761372903000,11.80490283203125,0.03466987609863281,0.017051756381988525,0.018606036901474
1714065761382783500,11.814783447265626,0.03174018859863281,0.021647125482559204,0.02780073881149292
1714065761392663000,11.8246630859375,0.026500701904296875,0.011926144361495972,0.010949283838272095
1714065761402541800,11.834541748046876,0.03076934814453125,-0.009285211563110352,0.013212233781814575
1714065761412421400,11.84442138671875,0.020842552185058594,0.005169957876205444,0.02250009775161743
1714065761422302000,11.854302001953124,0.011074066162109375,-0.008870184421539307,0.02233177423477173
1714065761432181500,11.864181396484375,-0.00559234619140625,-0.0014885365962982178,0.019812047481536865
1714065761442060300,11.874060302734375,-0.0007886886596679688,-0.0012885034084320068,0.019573092460632324
1714065761451940000,11.883940185546875,0.001575469970703125,-0.022279560565948486,0.021810948848724365
1714065761461820700,11.893820556640625,-0.024349212646484375,-0.012316226959228516,0.016948938369750977
1714065761471700200,11.9037001953125,-0.012175559997558594,-0.0072273313999176025,0.021584749221801758
1714065761481579000,11.9135791015625,-0.023741722106933594,-0.0045774877071380615,0.018962085247039795
1714065761491458800,11.923458740234375,-0.01157379150390625,0.002855241298675537,0.011793315410614014
1714065761501339100,11.933339111328126,-0.009030342102050781,0.00533708930015564,0.011806637048721313
1714065761511219000,11.943218994140626,-0.004174232482910156,0.014840155839920044,0.007111340761184692
1714065761521097700,11.95309765625,0.007663726806640625,0.019476383924484253,0.00014007091522216797
1714065761530977300,11.962977294921876,0.012240409851074219,0.033452168107032776,0.01682695746421814
1714065761540857900,11.97285791015625,0.01674175262451172,0.03071562945842743,0.0026312172412872314
1714065761550737400,11.9827373046875,0.023523330688476562,0.025670543313026428,-0.006619513034820557
1714065761560616200,11.9926162109375,0.02077960968017578,0.02306780219078064,0.017127275466918945
1714065761570496000,12.00249609375,0.027497291564941406,0.03227533400058746,0.0051621198654174805
1714065761580376300,12.012376220703125,0.029390335083007812,0.020141661167144775,0.012348562479019165
1714065761590256000,12.022256103515625,0.038313865661621094,0.027043819427490234,0.017061054706573486
1714065761600135000,12.032135009765625,0.030610084533691406,0.02205994725227356,0.0005072653293609619
1714065761610014500,12.042014404296875,0.023032188415527344,0.007619649171829224,0.012476474046707153
1714065761619895000,12.05189501953125,0.024997711181640625,0.002840876579284668,0.017186880111694336
1714065761629774600,12.061774658203126,0.012805938720703125,0.002968817949295044,0.019464612007141113
1714065761639653400,12.0716533203125,0.0008192062377929688,-0.011034637689590454,0.024055272340774536
1714065761649533200,12.081533203125,-0.018032073974609375,-0.008321255445480347,0.01680171489715576
1714065761659413500,12.09141357421875,-0.013025283813476562,-0.019778281450271606,0.021440088748931885
1714065761669293300,12.101293212890624,-0.015164375305175781,-0.009856551885604858,0.021292686462402344
1714065761679172000,12.111172119140624,-0.024332046508789062,-0.016579627990722656,0.01173090934753418
1714065761689051600,12.1210517578125,-0.021574974060058594,-0.009065419435501099,0.009391158819198608
1714065761698932200,12.13093212890625,-0.016513824462890625,0.005267471075057983,0.014152973890304565
1714065761708811800,12.140811767578125,-0.011532783508300781,0.01712590456008911,0.01883542537689209
1714065761718690600,12.150690673828125,-0.00428009033203125,0.007603049278259277,0.002255260944366455
1714065761728570400,12.1605703125,0.00049591064453125,0.021780848503112793,0.004785120487213135
1714065761738450700,12.17045068359375,0.0051937103271484375,0.026301518082618713,0.009623706340789795
1714065761748330500,12.18033056640625,0.023939132690429688,0.03298233449459076,0.007200360298156738
1714065761758209300,12.190209228515625,0.025892257690429688,0.030253663659095764,0.014352858066558838
1714065761768088800,12.2000888671875,0.030170440673828125,0.025216326117515564,0.014204919338226318
1714065761777969400,12.209969482421876,0.03908061981201172,0.017908751964569092,0.011823952198028564
1714065761787849000,12.219848876953124,0.03136444091796875,0.020139724016189575,0.00242006778717041
1714065761797727700,12.229727783203124,0.026131629943847656,0.022333532571792603,0.002589672803878784
1714065761807607600,12.239607666015624,0.0327606201171875,0.022136598825454712,0.014408797025680542
1714065761817488100,12.249488037109375,0.020441055297851562,-0.011015772819519043,0.01202443242073059
1714065761827367700,12.25936767578125,0.022452354431152344,0.005822569131851196,0.023805052042007446
