time,seconds_elapsed,z,y,x
1714065686618825500,0.183825439453125,0.01885223388671875,-0.001938939094543457,-0.043699249625205994
1714065686628704300,0.193704345703125,0.04868316650390625,0.011307448148727417,-0.051424846053123474
1714065686638584300,0.203584228515625,0.0976877212524414,0.04060825705528259,-0.009462714195251465
1714065686648465000,0.21346484375,0.11275005340576172,0.04578274488449097,0.006824776530265808
1714065686658344700,0.2233447265625,0.07701873779296875,0.037740230560302734,0.02400664985179901
1714065686668223700,0.2332236328125,0.0025873184204101562,-0.0025715231895446777,0.009091600775718689
1714065686678103600,0.243103515625,-0.010930061340332031,-0.0221233069896698,-0.02471175789833069
1714065686687984000,0.252984130859375,0.01884746551513672,0.004095911979675293,-0.03180471062660217
1714065686697864200,0.2628642578125,0.07827472686767578,0.010736227035522461,-0.016268029808998108
1714065686707743000,0.272742919921875,0.11197662353515625,0.041814059019088745,0.011923238635063171
1714065686717623000,0.282623046875,0.08540725708007812,0.04191923141479492,0.025027573108673096
1714065686727503600,0.292503662109375,0.017406463623046875,0.010395437479019165,0.014838844537734985
1714065686737383400,0.302383544921875,-0.04032325744628906,-0.02407205104827881,-0.010719969868659973
1714065686747262500,0.312262451171875,0.00035953521728515625,-0.02047714591026306,-0.030528441071510315
1714065686757142300,0.322142333984375,0.05061912536621094,0.012613654136657715,-0.02665737271308899
1714065686767022800,0.33202294921875,0.09650897979736328,0.03742188215255737,-0.0046896785497665405
1714065686776902700,0.341902587890625,0.08790111541748047,0.04291260242462158,0.016353890299797058
1714065686786782000,0.351781982421875,0.022327423095703125,0.01826488971710205,0.020495936274528503
1714065686796661800,0.361661865234375,-0.03377819061279297,-0.026005566120147705,-0.0054104626178741455
1714065686806542300,0.371542236328125,-0.0233001708984375,-0.017842769622802734,-0.02806420624256134
1714065686816422100,0.381422119140625,0.03755664825439453,0.015285611152648926,-0.017622902989387512
1714065686826301200,0.39130126953125,0.09405040740966797,0.040356576442718506,-0.0006294995546340942
1714065686836181000,0.401180908203125,0.08628368377685547,0.0413782000541687,0.027364015579223633
1714065686846061600,0.4110615234375,0.041797637939453125,0.03557845950126648,0.022048890590667725
1714065686855941600,0.420941650390625,-0.019812583923339844,-0.016504913568496704,-0.001631423830986023
1714065686865820700,0.430820556640625,-0.035462379455566406,-0.022800296545028687,-0.02227422595024109
1714065686875700500,0.440700439453125,0.012055397033691406,-0.005694657564163208,-0.021417230367660522
1714065686885581000,0.4505810546875,0.0814828872680664,0.027200013399124146,0.002657979726791382
1714065686895460900,0.4604609375,0.10016632080078125,0.04058244824409485,0.014545366168022156
1714065686905340000,0.47033984375,0.06251907348632812,0.01636427640914917,0.012029603123664856
1714065686915219700,0.4802197265625,-0.009057044982910156,-0.014200687408447266,0.011915728449821472
1714065686925100500,0.4901005859375,-0.04148292541503906,-0.022997349500656128,-0.01617954671382904
1714065686934980400,0.49998046875,-0.0007619857788085938,-0.012915283441543579,-0.015572130680084229
1714065686944859400,0.509859375,0.07166194915771484,0.024944067001342773,-0.00552503764629364
1714065686954739200,0.5197392578125,0.09566402435302734,0.04322010278701782,0.011173680424690247
1714065686964619800,0.529619873046875,0.06304073333740234,0.021342545747756958,0.013459905982017517
1714065686974499600,0.53949951171875,0.0077953338623046875,-0.009387761354446411,0.011017844080924988
1714065686984379000,0.54937890625,-0.043872833251953125,-0.02071288228034973,-0.014890775084495544
1714065686994258700,0.5592587890625,-0.0077877044677734375,-0.03414410352706909,-0.0143633633852005
1714065687004139300,0.56913916015625,0.055647850036621094,0.004361480474472046,-0.006824493408203125
1714065687014019000,0.57901904296875,0.0873098373413086,0.04194915294647217,0.005242690443992615
1714065687023898000,0.588898193359375,0.0714578628540039,0.03422844409942627,0.019411131739616394
1714065687033778000,0.59877783203125,0.01840972900390625,-0.0015959739685058594,0.0215732604265213
1714065687043658800,0.60865869140625,-0.040627479553222656,-0.0342535674571991,0.004924461245536804
1714065687053538600,0.61853857421875,-0.030452728271484375,-0.028724581003189087,-0.011398077011108398
1714065687063417600,0.62841748046875,0.045289039611816406,0.007225483655929565,0.000770270824432373
1714065687073297400,0.63829736328125,0.08674907684326172,0.037812888622283936,0.0009647607803344727
1714065687083178000,0.648177978515625,0.089874267578125,0.03494641184806824,0.022306889295578003
1714065687093058000,0.65805810546875,0.03419017791748047,0.02273726463317871,0.029167234897613525
1714065687102936800,0.667936767578125,-0.029911041259765625,-0.019706755876541138,0.007695704698562622
1714065687112817000,0.67781689453125,-0.038804054260253906,-0.028603732585906982,-0.013403281569480896
1714065687122697500,0.687697509765625,0.023046493530273438,-0.006765395402908325,-0.008264213800430298
1714065687132577300,0.697577392578125,0.07445621490478516,0.03354337811470032,0.0014995187520980835
1714065687142456300,0.707456298828125,0.09440803527832031,0.04963555932044983,0.02510315179824829
1714065687152336100,0.717336181640625,0.04810523986816406,0.02767413854598999,0.022417232394218445
1714065687162217000,0.727217041015625,-0.02332019805908203,-0.0032169222831726074,0.017544537782669067
1714065687172096800,0.7370966796875,-0.041764259338378906,-0.02653336524963379,0.00333191454410553
1714065687181975800,0.746975830078125,0.013083457946777344,-0.014030009508132935,-0.020060643553733826
1714065687191855600,0.756855712890625,0.07172107696533203,0.01933729648590088,-0.00539185106754303
1714065687201736400,0.766736328125,0.08700752258300781,0.045085906982421875,0.02080349624156952
1714065687211616300,0.7766162109375,0.05966377258300781,0.03273826837539673,0.025374487042427063
1714065687221495300,0.786495361328125,-0.019021987915039062,0.008704304695129395,0.018093988299369812
1714065687231375000,0.796375,-0.04459857940673828,-0.021870583295822144,0.006230801343917847
1714065687241255700,0.806255615234375,0.0008764266967773438,-0.018979907035827637,-0.012501612305641174
1714065687251135500,0.816135498046875,0.05736732482910156,0.019296646118164062,-0.0026671290397644043
1714065687261014500,0.8260146484375,0.09172534942626953,0.04033476114273071,0.0069991350173950195
1714065687270894600,0.83589453125,0.06665897369384766,0.03512892127037048,0.025807082653045654
1714065687280775200,0.845775146484375,0.009049415588378906,0.006467908620834351,0.01852378249168396
1714065687290655000,0.855655029296875,-0.031121253967285156,-0.021715432405471802,0.009007677435874939
1714065687300534000,0.865533935546875,-0.018828392028808594,-0.028241336345672607,-0.005058273673057556
1714065687310413800,0.875413818359375,0.04033851623535156,0.012425512075424194,-0.014063000679016113
1714065687320294700,0.885294677734375,0.0914621353149414,0.04535198211669922,0.00521436333656311
1714065687330174500,0.895174560546875,0.08522987365722656,0.025937408208847046,0.0312330424785614
1714065687340053500,0.905053466796875,0.017894744873046875,0.025679945945739746,0.028567761182785034
1714065687349933300,0.914933349609375,-0.0341949462890625,-0.01694875955581665,0.009467527270317078
1714065687359814000,0.92481396484375,-0.021851539611816406,-0.018848389387130737,-0.01167289912700653
1714065687369693700,0.934693603515625,0.030309677124023438,0.0005925595760345459,-0.008914709091186523
1714065687379573000,0.944572998046875,0.0768899917602539,0.033716291189193726,0.003214314579963684
1714065687389452800,0.954452880859375,0.08502674102783203,0.049808621406555176,0.024557992815971375
1714065687399333400,0.96433349609375,0.038883209228515625,0.025611430406570435,0.03377503156661987
1714065687409213200,0.974213134765625,-0.030035018920898438,-0.012310445308685303,0.01693795621395111
1714065687419092200,0.98409228515625,-0.03659248352050781,-0.028291374444961548,-0.004322618246078491
1714065687428972000,0.993971923828125,0.011110305786132812,-0.006341516971588135,-0.011226415634155273
1714065687438852900,1.003852783203125,0.06272029876708984,0.029252052307128906,-0.00376717746257782
1714065687448732700,1.013732666015625,0.0969839096069336,0.03823503851890564,0.017688587307929993
1714065687458611700,1.02361181640625,0.04593181610107422,0.02364477515220642,0.031724169850349426
1714065687468491500,1.033491455078125,-0.025455474853515625,-0.0025340914726257324,0.026478692889213562
1714065687478372400,1.043372314453125,-0.2744569778442383,1.6316829919815063,1.370546579360962
1714065687488252200,1.053252197265625,0.3845224380493164,-1.9113529920578003,-1.2079359292984009
1714065687498131200,1.063131103515625,0.034317970275878906,-0.569175124168396,-1.1175217628479004
1714065687508011000,1.073010986328125,-0.14986324310302734,0.5813992023468018,-0.05160428583621979
1714065687517891800,1.082891845703125,0.08568859100341797,-0.1166824996471405,0.46368759870529175
1714065687527771400,1.092771484375,0.051334381103515625,0.5493483543395996,0.7185051441192627
1714065687537650700,1.102650634765625,-0.0013113021850585938,-0.17750754952430725,-0.32657867670059204
1714065687547530500,1.112530517578125,-0.06486129760742188,-0.04261627793312073,0.16198617219924927
1714065687557411000,1.1224111328125,0.07511138916015625,0.2129601240158081,0.4218217134475708
1714065687567291000,1.132290771484375,0.08797645568847656,-0.12967833876609802,-0.20889562368392944
1714065687577170000,1.142169921875,0.008831024169921875,0.02583014965057373,-0.3135683536529541
1714065687587050000,1.152050048828125,0.03928565979003906,0.013448178768157959,0.11526745557785034
1714065687596930600,1.1619306640625,-0.06964874267578125,0.02975165843963623,-0.05196183919906616
1714065687606810400,1.171810302734375,-0.007275581359863281,0.04366615414619446,0.20347267389297485
1714065687616689400,1.181689453125,0.061104774475097656,-0.06517407298088074,0.09024485945701599
1714065687626569200,1.1915693359375,0.04595756530761719,0.051569730043411255,-0.061349689960479736
1714065687636450000,1.201449951171875,0.08991718292236328,0.02002975344657898,0.010368317365646362
1714065687646329900,1.211329833984375,0.00838470458984375,0.026815086603164673,-0.13602909445762634
1714065687656209000,1.221208984375,-0.03647613525390625,-0.001698821783065796,-0.011476635932922363
1714065687666088700,1.231088623046875,-0.02880382537841797,0.01498115062713623,0.13723444938659668
1714065687675969500,1.240969482421875,0.004635810852050781,0.015019476413726807,0.07182206213474274
1714065687685849300,1.250849365234375,0.08224010467529297,-0.006240814924240112,-0.018264904618263245
1714065687695728400,1.260728271484375,0.07615852355957031,0.052774667739868164,-0.03893858194351196
1714065687705608200,1.270608154296875,0.03957653045654297,0.01651737093925476,-0.05491916835308075
1714065687715489000,1.280489013671875,-0.03170585632324219,0.014060229063034058,0.04260517656803131
1714065687725368600,1.29036865234375,-0.04294586181640625,-0.04249697923660278,0.03740072250366211
1714065687735248000,1.300247802734375,0.0001468658447265625,0.003234654664993286,0.06771020591259003
1714065687745127700,1.310127685546875,0.051934242248535156,0.010415613651275635,0.015231907367706299
1714065687755008300,1.32000830078125,0.07461261749267578,0.03395912051200867,-0.057792291045188904
1714065687764888000,1.32988818359375,0.04747581481933594,0.03827387094497681,-0.00730404257774353
1714065687774767000,1.33976708984375,-0.014519691467285156,0.009557962417602539,0.018800780177116394
1714065687784647000,1.34964697265625,-0.044884681701660156,-0.021152108907699585,0.04694332182407379
1714065687794527700,1.35952783203125,-0.01824474334716797,-0.022978663444519043,0.04189950227737427
1714065687804407600,1.369407470703125,0.03149604797363281,0.010538220405578613,-0.003200247883796692
1714065687814286600,1.37928662109375,0.07805728912353516,0.036431074142456055,-0.024129211902618408
1714065687824166400,1.38916650390625,0.05792713165283203,0.038350462913513184,0.0022560209035873413
1714065687834047200,1.399047119140625,0.00046539306640625,0.01199030876159668,0.02585163712501526
1714065687843927000,1.408927001953125,-0.046624183654785156,-0.02335008978843689,0.04916831851005554
1714065687853806000,1.41880615234375,-0.04584789276123047,-0.020431578159332275,0.025135233998298645
1714065687863686000,1.428685791015625,0.011415481567382812,0.0012718439102172852,-0.014976635575294495
1714065687873566700,1.438566650390625,0.07714462280273438,0.03673875331878662,-0.028642386198043823
1714065687883446500,1.448446533203125,0.07585906982421875,0.026763468980789185,0.00488068163394928
1714065687893325600,1.45832568359375,0.018093109130859375,0.0169544517993927,0.03313663601875305
1714065687903205400,1.468205322265625,-0.036353111267089844,-0.011403322219848633,0.03985682129859924
1714065687913086200,1.478086181640625,-0.042807579040527344,-0.03222587704658508,0.027631431818008423
1714065687922966000,1.487966064453125,0.00028133392333984375,-0.007974386215209961,-0.005463719367980957
1714065687932845000,1.497844970703125,0.07090473175048828,0.027643829584121704,-0.016938120126724243
1714065687942724900,1.507724853515625,0.08620357513427734,0.0438348650932312,0.007091715931892395
1714065687952605400,1.51760546875,0.03768444061279297,0.03386276960372925,0.037787988781929016
1714065687962485200,1.5274853515625,-0.0265045166015625,-0.01361033320426941,0.03501392900943756
1714065687972364300,1.5373642578125,-0.044895172119140625,-0.02497929334640503,0.01580667495727539
1714065687982244000,1.547244140625,-0.01589488983154297,-0.01261952519416809,-0.014855757355690002
1714065687992125000,1.557125,0.045581817626953125,0.016016364097595215,-0.0167524516582489
1714065688002004700,1.567004638671875,0.07306861877441406,0.036991000175476074,0.00021170079708099365
1714065688011883800,1.5768837890625,0.050667762756347656,0.036546915769577026,0.030899688601493835
1714065688021763600,1.586763671875,-0.004321098327636719,-0.00626528263092041,0.040007129311561584
1714065688031644400,1.59664453125,-0.04426860809326172,-0.020110756158828735,0.01600833237171173
1714065688041524200,1.606524169921875,-0.03882122039794922,-0.01254051923751831,0.006530329585075378
1714065688051403300,1.6164033203125,0.04657936096191406,0.01373705267906189,-0.021623313426971436
1714065688061283000,1.626282958984375,0.0811166763305664,0.030159950256347656,0.002484649419784546
1714065688071164000,1.636163818359375,0.0609283447265625,0.04619327187538147,0.030903562903404236
1714065688081043700,1.646043701171875,0.0034093856811523438,0.01958104968070984,0.030594170093536377
1714065688090922800,1.6559228515625,-0.053145408630371094,-0.013528764247894287,0.011460661888122559
1714065688100802600,1.665802490234375,-0.04284191131591797,-0.02490180730819702,-0.00971248745918274
1714065688110683400,1.675683349609375,0.007311820983886719,0.003938883543014526,-0.014049023389816284
1714065688120563200,1.685563232421875,0.06368732452392578,0.034531623125076294,0.005224317312240601
1714065688130442200,1.695442138671875,0.07204055786132812,0.05048930644989014,0.028884857892990112
1714065688140322000,1.705322021484375,0.019046783447265625,0.01686158776283264,0.0452071875333786
1714065688150202600,1.71520263671875,-0.047188758850097656,-0.00914028286933899,0.037719860672950745
1714065688160082400,1.72508251953125,-0.06287956237792969,-0.027648985385894775,-0.007432863116264343
1714065688169961500,1.73496142578125,-0.007687568664550781,-0.01536056399345398,-0.016515806317329407
1714065688179841500,1.744841552734375,0.046584129333496094,0.032036036252975464,-0.004259616136550903
1714065688189722000,1.75472216796875,0.07876300811767578,0.0503922700881958,0.03133431077003479
1714065688199602000,1.764601806640625,0.04214000701904297,0.0379539430141449,0.03337197005748749
1714065688209481000,1.77448095703125,-0.029186248779296875,-0.00723305344581604,0.028317391872406006
1714065688219360800,1.78436083984375,-0.05694770812988281,-0.02106514573097229,0.00450916588306427
1714065688229241600,1.79424169921875,-0.01833057403564453,-0.008767783641815186,-0.0024185776710510254
1714065688239121400,1.804121337890625,0.03847694396972656,0.010387212038040161,-0.00452248752117157
1714065688249000400,1.81400048828125,0.06844329833984375,0.04570230841636658,0.007533863186836243
1714065688258880300,1.82388037109375,0.041408538818359375,0.038050562143325806,0.026447579264640808
1714065688268761000,1.833760986328125,-0.00165557861328125,0.01169559359550476,0.0356336385011673
1714065688278641000,1.843640869140625,-0.07225227355957031,-0.021282732486724854,0.004645198583602905
1714065688288520000,1.85352001953125,-0.0475006103515625,-0.022988229990005493,-0.006993219256401062
1714065688298399700,1.863399658203125,0.021567344665527344,0.010528981685638428,-0.002076968550682068
1714065688308280600,1.873280517578125,0.06122875213623047,0.048077285289764404,0.005111560225486755
1714065688318160400,1.883160400390625,0.06962299346923828,0.04733261466026306,0.028778359293937683
1714065688328039400,1.893039306640625,0.00725555419921875,0.01846867799758911,0.030862927436828613
1714065688337919200,1.902919189453125,-0.061135292053222656,-0.014622539281845093,0.018787607550621033
1714065688347800000,1.912800048828125,-0.05540275573730469,-0.0306856632232666,-0.012043043971061707
1714065688357679600,1.9226796875,-0.009748458862304688,-0.015873730182647705,0.0048470646142959595
1714065688367559000,1.932558837890625,0.053978919982910156,0.022233307361602783,0.002622082829475403
1714065688377438700,1.942438720703125,0.06955337524414062,0.04310712218284607,0.02174067497253418
1714065688387319300,1.9523193359375,0.030724525451660156,0.02832016348838806,0.028650984168052673
1714065688397199000,1.96219921875,-0.040411949157714844,-0.002583831548690796,0.028379231691360474
1714065688407078100,1.972078125,-0.05856895446777344,-0.018847614526748657,-0.00013840198516845703
1714065688416958000,1.9819580078125,-0.02463245391845703,-0.008944123983383179,0.00006961822509765625
1714065688426838800,1.9918388671875,0.04875946044921875,0.012565255165100098,0.0026283711194992065
1714065688436718600,2.001718505859375,0.06678009033203125,0.04301422834396362,0.02621355652809143
1714065688446597600,2.01159765625,0.046837806701660156,0.03776147961616516,0.03763468563556671
1714065688456477400,2.0214775390625,-0.019858360290527344,0.01140853762626648,0.016025468707084656
1714065688466358300,2.031358154296875,-0.06660938262939453,-0.033335983753204346,0.006551668047904968
1714065688476238000,2.041238037109375,-0.03960132598876953,-0.016125649213790894,-0.00041009485721588135
1714065688486117000,2.0511171875,0.015208244323730469,0.012568771839141846,-0.00019325315952301025
1714065688495997000,2.060996826171875,0.062038421630859375,0.04066351056098938,-0.00010301172733306885
1714065688505877800,2.070877685546875,0.05864906311035156,0.030622869729995728,0.032944515347480774
1714065688515757600,2.080757568359375,-0.005893707275390625,0.01604396104812622,0.020834535360336304
1714065688525636600,2.09063671875,-0.06700706481933594,-0.00770878791809082,0.008926376700401306
1714065688535516400,2.100516357421875,-0.04705524444580078,-0.02859550714492798,-0.0027876347303390503
1714065688545397200,2.110397216796875,-0.001537322998046875,-0.006758600473403931,-0.005008339881896973
1714065688555277000,2.120277099609375,0.0479278564453125,0.026485353708267212,0.009406045079231262
1714065688565156000,2.130156005859375,0.0659646987915039,0.03328186273574829,0.02358447015285492
1714065688575036000,2.140035888671875,0.015424728393554688,0.025721222162246704,0.030464068055152893
1714065688584916500,2.14991650390625,-0.0413360595703125,-0.0005469918251037598,0.01839543879032135
1714065688594796300,2.15979638671875,-0.075958251953125,-0.03096705675125122,-0.009951457381248474
1714065688604675600,2.169675537109375,-0.02290058135986328,-0.013796210289001465,0.0023141205310821533
1714065688614555400,2.179555419921875,0.04340076446533203,0.02427622675895691,-0.013993784785270691
1714065688624436000,2.18943603515625,0.07092952728271484,0.0381721556186676,0.014699876308441162
1714065688634315800,2.199315673828125,0.04149818420410156,0.04006552696228027,0.035852715373039246
1714065688644194800,2.20919482421875,-0.025114059448242188,0.008847057819366455,0.02368992567062378
1714065688654074600,2.21907470703125,-0.062361717224121094,-0.028794974088668823,0.009375721216201782
1714065688663955500,2.22895556640625,-0.03777885437011719,-0.025785505771636963,0.004721134901046753
1714065688673835300,2.238835205078125,0.009936332702636719,-0.0016384124755859375,0.00014409422874450684
1714065688683714300,2.24871435546875,0.07569026947021484,0.04093697667121887,0.00034740567207336426
1714065688693594000,2.258593994140625,0.05559730529785156,0.04513844847679138,0.0288020521402359
1714065688703475000,2.268474853515625,0.012293815612792969,0.006775647401809692,0.03088630735874176
1714065688713354800,2.278354736328125,-0.05853557586669922,-0.016706645488739014,0.021160557866096497
1714065688723233800,2.28823388671875,-0.05520439147949219,-0.030378013849258423,-0.009586632251739502
1714065688733113600,2.298113525390625,-0.000141143798828125,-0.003918886184692383,-0.009216800332069397
1714065688742994400,2.307994384765625,0.05636310577392578,0.024572163820266724,0.000563696026802063
1714065688752874200,2.317874267578125,0.06719207763671875,0.047761231660842896,0.021952152252197266
1714065688762753300,2.327753173828125,0.01898670196533203,0.035250842571258545,0.03121313452720642
1714065688772633000,2.337633056640625,-0.04018402099609375,-0.01930779218673706,0.021486252546310425
1714065688782514000,2.347513916015625,-0.060698509216308594,-0.03528997302055359,0.002504676580429077
1714065688792393700,2.357393798828125,-0.029077529907226562,-0.008511543273925781,-0.0020354092121124268
1714065688802272800,2.367272705078125,0.04674339294433594,0.01534762978553772,-0.01120823621749878
1714065688812152600,2.377152587890625,0.07892417907714844,0.04352030158042908,0.017443329095840454
1714065688822033400,2.387033447265625,0.04700660705566406,0.03590777516365051,0.02442529797554016
1714065688831913000,2.396912841796875,-0.024405479431152344,0.0024072229862213135,0.03599934279918671
1714065688841792300,2.406792236328125,-0.0687265396118164,-0.025707870721817017,0.005004867911338806
1714065688851672000,2.416672119140625,-0.03461647033691406,-0.02027687430381775,-0.013702020049095154
1714065688861552600,2.426552734375,0.015399932861328125,0.010841012001037598,-0.008555188775062561
1714065688871432400,2.436432373046875,0.06929206848144531,0.036731839179992676,0.02475622296333313
1714065688881311500,2.4463115234375,0.0634307861328125,0.04571181535720825,0.026907920837402344
1714065688891191600,2.456191650390625,0.0011653900146484375,0.009812414646148682,0.03373217582702637
1714065688901072100,2.466072021484375,-0.060057640075683594,-0.013717681169509888,0.021490365266799927
1714065688910952000,2.475951904296875,-0.05669689178466797,-0.027320116758346558,0.00250871479511261
1714065688920831000,2.4858310546875,-0.01337432861328125,-0.0031474530696868896,-0.009094029664993286
1714065688930710800,2.495710693359375,0.057476043701171875,0.02533075213432312,0.010101214051246643
1714065688940591600,2.505591552734375,0.07064533233642578,0.04156056046485901,0.014847055077552795
1714065688950471400,2.515471435546875,0.03651142120361328,0.03162375092506409,0.02893058955669403
1714065688960350500,2.5253505859375,-0.04178905487060547,-0.0041596293449401855,0.021595939993858337
1714065688970230300,2.535230224609375,-0.06463241577148438,-0.032168030738830566,0.007316648960113525
1714065688980111000,2.545111083984375,-0.021177291870117188,-0.005563110113143921,-0.013787269592285156
1714065688989991000,2.554990966796875,0.04744911193847656,0.018247008323669434,-0.0015764236450195312
1714065688999870000,2.564869873046875,0.05607128143310547,0.04860129952430725,0.02455177903175354
1714065689009749800,2.574749755859375,0.04336833953857422,0.038547128438949585,0.03141099214553833
1714065689019630600,2.584630615234375,-0.027978897094726562,0.005118578672409058,0.024030745029449463
1714065689029510400,2.594510498046875,-0.06517887115478516,-0.018336057662963867,0.012065097689628601
1714065689039389400,2.604389404296875,-0.047616004943847656,-0.027393370866775513,0.00029881298542022705
1714065689049269200,2.614269287109375,0.009675979614257812,0.006078571081161499,-0.004204481840133667
1714065689059149800,2.62414990234375,0.06837177276611328,0.02498626708984375,0.010200902819633484
1714065689069030000,2.63402978515625,0.06252574920654297,0.04593297839164734,0.022011995315551758
1714065689078909000,2.643908935546875,0.0096893310546875,0.02168211340904236,0.02891784906387329
1714065689088788700,2.653788818359375,-0.058747291564941406,-0.025706559419631958,0.023937612771987915
1714065689098669300,2.66366943359375,-0.060120582580566406,-0.029811084270477295,0.007269442081451416
1714065689108549000,2.673549072265625,-0.012032508850097656,-0.010305255651473999,0.005004182457923889
1714065689118428200,2.68342822265625,0.05644035339355469,0.030063211917877197,0.005130857229232788
1714065689128308200,2.69330810546875,0.06962776184082031,0.04385995864868164,0.021730542182922363
1714065689138188800,2.703188720703125,0.0284423828125,0.03612026572227478,0.028636813163757324
1714065689148068600,2.713068603515625,-0.04030609130859375,-0.002092212438583374,0.018952876329421997
1714065689157947600,2.72294775390625,-0.06788349151611328,-0.01836410164833069,0.000009238719940185547
1714065689167827700,2.73282763671875,-0.03849983215332031,-0.01317700743675232,-0.00920189917087555
1714065689177708300,2.742708251953125,0.03512763977050781,0.010757207870483398,0.007517918944358826
1714065689187588000,2.752588134765625,0.06515026092529297,0.036649465560913086,0.014546573162078857
1714065689197467100,2.762467041015625,0.04758644104003906,0.03856825828552246,0.02393101155757904
1714065689207347200,2.77234716796875,-0.012061119079589844,0.012085944414138794,0.03068612515926361
1714065689217227800,2.782227783203125,-0.056588172912597656,-0.025607198476791382,0.023322254419326782
1714065689227107600,2.792107666015625,-0.06506061553955078,-0.025004982948303223,-0.00275246798992157
1714065689236986600,2.801986572265625,0.011361122131347656,-0.005579262971878052,-0.002496495842933655
1714065689246866400,2.811866455078125,0.060606956481933594,0.03929734230041504,0.004813492298126221
1714065689256747300,2.821747314453125,0.05724048614501953,0.03399065136909485,0.03319378197193146
1714065689266627000,2.831626953125,0.011556625366210938,0.021709799766540527,0.025669336318969727
1714065689276506000,2.841506103515625,-0.05220222473144531,-0.013908326625823975,0.004263877868652344
1714065689286386000,2.851385986328125,-0.06310081481933594,-0.01114693284034729,0.013819754123687744
1714065689296266800,2.861266845703125,-0.019672393798828125,-0.015494108200073242,-0.0026798397302627563
1714065689306146600,2.871146484375,0.0536346435546875,0.020252466201782227,0.002402082085609436
1714065689316025600,2.881025634765625,0.07863330841064453,0.041159361600875854,0.011988937854766846
1714065689325905400,2.890905517578125,0.02553272247314453,0.024169445037841797,0.02612444758415222
1714065689335786200,2.9007861328125,-0.02903461456298828,0.002754300832748413,0.028134644031524658
1714065689345666000,2.910666015625,-0.06621646881103516,-0.02536657452583313,0.013750702142715454
1714065689355545000,2.920545166015625,-0.046273231506347656,-0.012878626585006714,-0.0003935396671295166
1714065689365425000,2.9304248046875,0.02277088165283203,0.00634494423866272,-0.004885256290435791
1714065689375305500,2.940305419921875,0.074188232421875,0.03937339782714844,0.007058531045913696
1714065689385185500,2.950185546875,0.05647468566894531,0.03889259696006775,0.03540140390396118
1714065689395064600,2.960064697265625,-0.010384559631347656,0.005342274904251099,0.02313174307346344
1714065689404944400,2.9699443359375,-0.07141876220703125,-0.02046746015548706,0.011185407638549805
1714065689414825000,2.979824951171875,-0.0419769287109375,-0.0246620774269104,-0.0029203444719314575
1714065689424704800,2.989704833984375,0.01522064208984375,0.006407380104064941,-0.005020067095756531
1714065689434583800,2.999583740234375,0.06440448760986328,0.0322534441947937,-0.004845038056373596
1714065689444463900,3.0094638671875,0.0680398941040039,0.04589769244194031,0.03064003586769104
1714065689454344400,3.019344482421875,0.005694389343261719,0.02871003746986389,0.025631174445152283
1714065689464224300,3.029224365234375,-0.048544883728027344,-0.01632276177406311,0.027768373489379883
1714065689474103300,3.039103271484375,-0.06421279907226562,-0.03471165895462036,0.015740424394607544
1714065689483983400,3.0489833984375,-0.020766258239746094,-0.019832521677017212,-0.010207965970039368
1714065689493864000,3.058864013671875,0.050208091735839844,0.015983611345291138,-0.014540374279022217
1714065689503743700,3.06874365234375,0.07291507720947266,0.039434611797332764,0.025933444499969482
1714065689513622800,3.078622802734375,0.031678199768066406,0.03895002603530884,0.028180062770843506
1714065689523502600,3.088502685546875,-0.039473533630371094,-0.0039020180702209473,0.018499478697776794
1714065689533383400,3.098383544921875,-0.057647705078125,-0.027206242084503174,0.008980274200439453
1714065689543263200,3.10826318359375,-0.04020500183105469,-0.014809191226959229,-0.0050887614488601685
1714065689553142300,3.118142333984375,0.033448219299316406,0.011509209871292114,-0.00008542835712432861
1714065689563022000,3.12802197265625,0.0776205062866211,0.05386835336685181,0.016605526208877563
1714065689572903000,3.13790283203125,0.055145263671875,0.03431245684623718,0.03289954364299774
1714065689582782700,3.14778271484375,-0.0187530517578125,0.010374099016189575,0.02785302698612213
1714065689592661800,3.157661865234375,-0.0655221939086914,-0.029644697904586792,0.011119604110717773
1714065689602541600,3.16754150390625,-0.0526580810546875,-0.03368633985519409,-0.0029850751161575317
1714065689612422400,3.17742236328125,0.016493797302246094,0.004717707633972168,-0.005079358816146851
1714065689622302200,3.18730224609375,0.06801223754882812,0.030710667371749878,0.004632234573364258
1714065689632181200,3.19718115234375,0.07393836975097656,0.042023688554763794,0.033011242747306824
1714065689642061000,3.20706103515625,-0.0026311874389648438,0.01077541708946228,0.03737965226173401
1714065689651942000,3.21694189453125,-0.06144428253173828,-0.017597883939743042,0.018133297562599182
1714065689661821400,3.226821533203125,-0.0721893310546875,-0.024191737174987793,0.001561880111694336
1714065689671700700,3.23670068359375,0.0019979476928710938,-0.01890471577644348,-0.012497961521148682
1714065689681580500,3.24658056640625,0.05140399932861328,0.02631556987762451,-0.005016908049583435
1714065689691461000,3.256461181640625,0.07644462585449219,0.04959443211555481,0.018818870186805725
1714065689701341000,3.2663408203125,0.03514671325683594,0.029990971088409424,0.03284062445163727
1714065689711220000,3.276219970703125,-0.036063194274902344,-0.005649149417877197,0.02779078483581543
1714065689721100000,3.28610009765625,-0.06606388092041016,-0.028924256563186646,0.0063457190990448
1714065689730980600,3.295980712890625,-0.02493762969970703,-0.023561090230941772,-0.0030897706747055054
1714065689740860400,3.3058603515625,0.03669166564941406,0.019382625818252563,-0.0005926787853240967
1714065689750739500,3.315739501953125,0.080810546875,0.049720823764801025,0.015987977385520935
1714065689760619300,3.325619384765625,0.037090301513671875,0.03965356945991516,0.027707025408744812
1714065689770500000,3.3355,-0.02944469451904297,-0.0032073557376861572,0.025101274251937866
1714065689780380000,3.3453798828125,-0.057206153869628906,-0.0313476026058197,0.013122156262397766
1714065689790259000,3.355259033203125,-0.044480323791503906,-0.025941282510757446,-0.005719959735870361
1714065689800138800,3.365138671875,0.019826889038085938,0.012333691120147705,-0.005414441227912903
1714065689810019600,3.37501953125,0.06658267974853516,0.04761657118797302,0.009011194109916687
1714065689819899400,3.3848994140625,0.06312084197998047,0.046998441219329834,0.027904793620109558
1714065689829778400,3.3947783203125,-0.00385284423828125,0.020372867584228516,0.02529139816761017
1714065689839658200,3.404658203125,-0.06264877319335938,-0.01757994294166565,0.01813201606273651
1714065689849539000,3.4145390625,-0.04747772216796875,-0.031239420175552368,0.003910541534423828
1714065689859419000,3.4244189453125,0.009817123413085938,0.009478062391281128,-0.01242382824420929
1714065689869298000,3.4342978515625,0.05202960968017578,0.033037543296813965,0.004472792148590088
1714065689879177700,3.444177734375,0.07470130920410156,0.04666876792907715,0.02108784019947052
1714065689889058600,3.45405859375,0.026369094848632812,0.024759888648986816,0.020946621894836426
1714065689898938000,3.463938232421875,-0.04940223693847656,-0.0013734400272369385,0.025516152381896973
1714065689908817400,3.4738173828125,-0.0674123764038086,-0.02000865340232849,0.011294737458229065
1714065689918697200,3.483697265625,-0.026266098022460938,-0.0030203163623809814,-0.00045427680015563965
1714065689928577800,3.493577880859375,0.03773689270019531,0.020747482776641846,0.009180307388305664
1714065689938457600,3.50345751953125,0.06770896911621094,0.03693774342536926,0.025716885924339294
1714065689948337000,3.5133369140625,0.03597450256347656,0.03637880086898804,0.030206888914108276
1714065689958216700,3.523216796875,-0.023479461669921875,-0.00407332181930542,0.02991369366645813
1714065689968097300,3.53309716796875,-0.06310653686523438,-0.022663503885269165,0.01785440742969513
1714065689977977000,3.54297705078125,-0.043219566345214844,-0.024464517831802368,-0.0010665059089660645
1714065689987856100,3.552856201171875,0.018711090087890625,0.011431664228439331,-0.0031927525997161865
1714065689997736000,3.56273583984375,0.06548023223876953,0.041902363300323486,0.004133269190788269
1714065690007616800,3.57261669921875,0.05968475341796875,0.036671072244644165,0.030051961541175842
1714065690017496600,3.58249658203125,-0.014287948608398438,0.017399072647094727,0.022694438695907593
1714065690027375600,3.592375732421875,-0.07054901123046875,-0.025093764066696167,0.006042778491973877
1714065690037255400,3.60225537109375,-0.05289649963378906,-0.038746803998947144,-0.0009146183729171753
1714065690047136300,3.61213623046875,0.0044879913330078125,0.006804168224334717,-0.00304335355758667
1714065690057016000,3.62201611328125,0.058564186096191406,0.028051257133483887,0.011219635605812073
1714065690066895000,3.63189501953125,0.07406902313232422,0.03482180833816528,0.011242851614952087
1714065690076775000,3.64177490234375,0.013982772827148438,0.025000184774398804,0.030099287629127502
1714065690086655700,3.65165576171875,-0.06393718719482422,-0.012908101081848145,0.020391136407852173
1714065690096535600,3.66153564453125,-0.060515403747558594,-0.02899685502052307,-0.0009262412786483765
1714065690106414600,3.67141455078125,-0.012420654296875,-0.002441912889480591,0.004007771611213684
1714065690116294400,3.68129443359375,0.05368328094482422,0.018249213695526123,-0.014801189303398132
1714065690126175200,3.69117529296875,0.07867050170898438,0.28616470098495483,-0.04008705914020538
1714065690136054800,3.7010546875,0.02086162567138672,0.4204850196838379,0.014844581484794617
1714065690145934000,3.71093408203125,0.08871650695800781,0.33144596219062805,0.08515818417072296
1714065690155814000,3.72081396484375,-0.13878631591796875,0.930982232093811,0.14124512672424316
1714065690165694500,3.730694580078125,-0.07761192321777344,0.8410619497299194,-0.23444442451000214
1714065690175574300,3.74057421875,0.07900810241699219,0.5034205913543701,0.055051133036613464
1714065690185453600,3.75045361328125,0.23999309539794922,0.7712348699569702,0.04545280337333679
1714065690195333400,3.76033349609375,0.24054908752441406,1.468390941619873,-0.3176376521587372
1714065690205214000,3.7702138671875,0.24578475952148438,2.1826231479644775,0.3206586241722107
1714065690215093800,3.78009375,-0.6953220367431641,2.7959299087524414,-0.23617702722549438
1714065690224972800,3.789972900390625,-0.2733182907104492,3.839911937713623,0.015398100018501282
1714065690234852600,3.7998525390625,0.3457174301147461,3.3461921215057373,0.2671383321285248
1714065690244733400,3.8097333984375,0.45685863494873047,1.7708568572998047,0.0026254355907440186
1714065690254613200,3.81961328125,0.13551902770996094,2.3698642253875732,-0.9615509510040283
1714065690264492300,3.8294921875,-0.6648893356323242,3.435410976409912,0.4535813331604004
1714065690274372000,3.8393720703125,-0.26216793060302734,3.6505377292633057,0.7696278095245361
1714065690284253000,3.8492529296875,-0.3427867889404297,3.0514280796051025,-0.7571924924850464
1714065690294132700,3.8591328125,2.2653894424438477,1.073600172996521,-1.7431586980819702
1714065690304011800,3.86901171875,2.158867835998535,1.1948319673538208,1.36878502368927
1714065690313891600,3.8788916015625,-0.9749898910522461,4.02040433883667,0.5207653045654297
1714065690323772400,3.8887724609375,-2.4815335273742676,4.465876579284668,-0.7498937249183655
1714065690333652200,3.89865234375,0.2470693588256836,3.3013617992401123,-1.2434331178665161
1714065690343531300,3.90853125,1.2850141525268555,0.7650627493858337,0.7167254686355591
1714065690353411000,3.9184111328125,0.042166709899902344,4.4671173095703125,1.111354112625122
1714065690363291600,3.928291748046875,0.10408210754394531,4.06015682220459,-0.9274567365646362
1714065690373171500,3.93817138671875,-0.834589958190918,1.5163978338241577,-1.0872069597244263
1714065690383050800,3.94805078125,-0.9757080078125,3.31619930267334,0.09858743846416473
1714065690392930600,3.9579306640625,-0.3427896499633789,2.5602235794067383,-0.15440943837165833
1714065690402811100,3.96781103515625,0.8306169509887695,1.850291132926941,0.13281401991844177
1714065690412691000,3.97769091796875,0.30316162109375,3.0975687503814697,0.3073238134384155
1714065690422570000,3.987570068359375,0.42178916931152344,3.4801111221313477,-0.7969973087310791
1714065690432450000,3.997449951171875,-1.2365646362304688,3.350755453109741,-1.3673765659332275
1714065690442330600,4.00733056640625,-0.6053829193115234,1.7288132905960083,0.4091123342514038
1714065690452210400,4.01721044921875,1.0319690704345703,0.8310814499855042,1.6207524538040161
1714065690462089500,4.02708935546875,1.1225528717041016,3.6455295085906982,0.5651628971099854
1714065690471969300,4.03696923828125,-1.8463125228881836,3.4580893516540527,-1.0531651973724365
1714065690481850000,4.04685009765625,-0.9938220977783203,1.697476863861084,-1.660636305809021
1714065690491730000,4.05672998046875,2.230653762817383,1.0214259624481201,0.4955543875694275
1714065690501609000,4.06660888671875,1.0837535858154297,2.4726123809814453,2.1156694889068604
1714065690511488800,4.07648876953125,-0.7244663238525391,4.760791778564453,0.2696005702018738
1714065690521369600,4.08636962890625,-1.6754865646362305,2.336866617202759,-1.5593281984329224
1714065690531249400,4.09624951171875,-2.1774849891662598,0.9416638612747192,-1.3978614807128906
1714065690541128400,4.10612841796875,2.527841567993164,3.129538059234619,-2.296865463256836
1714065690551008300,4.11600830078125,2.743586540222168,0.7752251625061035,0.7315125465393066
1714065690560889000,4.12588916015625,0.310211181640625,1.4397310018539429,1.2025662660598755
1714065690570768600,4.1357685546875,-2.07181978225708,2.4682352542877197,-0.47002357244491577
1714065690580648000,4.14564794921875,-1.0185127258300781,0.8946724534034729,0.21682730317115784
1714065690590527700,4.15552783203125,-0.2519950866699219,1.8489145040512085,-1.6326712369918823
1714065690600408300,4.165408203125,0.2524394989013672,0.8394309878349304,-0.9403630495071411
1714065690610288000,4.1752880859375,0.9947099685668945,0.8619466423988342,-0.22276051342487335
1714065690620167200,4.185167236328125,0.10399341583251953,1.6148513555526733,0.42526865005493164
1714065690630047200,4.195047119140625,-0.22129249572753906,4.289794921875,0.20655414462089539
1714065690639927800,4.204927734375,-1.9406909942626953,3.1567862033843994,-0.7303392887115479
1714065690649807600,4.2148076171875,-3.5384793281555176,3.1517229080200195,-2.639913558959961
1714065690659686700,4.224686767578125,1.213545799255371,-0.36630749702453613,-2.7335991859436035
1714065690669566500,4.23456640625,4.950985908508301,-2.4661436080932617,0.9359868764877319
1714065690679447300,4.244447265625,0.11015796661376953,0.9453883171081543,1.2518479824066162
1714065690689327000,4.2543271484375,-1.156083106994629,3.551468849182129,0.40496259927749634
1714065690699206100,4.2642060546875,-2.3569846153259277,3.691758632659912,0.4725635349750519
1714065690709086000,4.2740859375,-0.7727260589599609,0.7745590209960938,-1.685422658920288
1714065690718966800,4.283966796875,1.5359563827514648,0.35116076469421387,1.7914408445358276
1714065690728846600,4.2938466796875,2.807291030883789,-0.2789517045021057,0.8733652830123901
1714065690738725600,4.3037255859375,-0.18047714233398438,4.392064094543457,0.3392781615257263
1714065690748605400,4.31360546875,-4.032329082489014,3.2406527996063232,-2.019235849380493
1714065690758486300,4.323486328125,4.503355979919434,-1.5096733570098877,-0.010429859161376953
1714065690768366000,4.333365966796875,0.14889049530029297,-4.7478251457214355,1.1754271984100342
1714065690778245000,4.3432451171875,2.0211639404296875,0.2981100082397461,1.2484322786331177
1714065690788125000,4.353125,-1.5757884979248047,3.6035776138305664,1.913146734237671
1714065690798005500,4.363005615234375,-3.174778938293457,4.9860520362854,0.3216686546802521
1714065690807885300,4.37288525390625,-0.6500606536865234,0.38735827803611755,-1.5763089656829834
1714065690817764600,4.3827646484375,1.0025177001953125,-1.7880245447158813,-0.019228771328926086
1714065690827644400,4.39264453125,2.20932674407959,0.008811622858047485,0.9240298271179199
1714065690837525000,4.40252490234375,-2.0521187782287598,3.375293254852295,1.627998948097229
1714065690847404800,4.41240478515625,-2.8860535621643066,4.150710582733154,1.3555760383605957
1714065690857283800,4.422283935546875,0.041576385498046875,0.17035606503486633,0.7376137375831604
1714065690867163600,4.43216357421875,4.0204057693481445,0.34205543994903564,0.7964271903038025
1714065690877044500,4.44204443359375,0.8531703948974609,2.5236337184906006,3.7370738983154297
1714065690886924300,4.45192431640625,-1.253561019897461,2.073554039001465,-1.5363572835922241
1714065690896803300,4.46180322265625,-0.8014450073242188,-1.3850375413894653,-2.4473583698272705
1714065690906683100,4.47168310546875,0.7696552276611328,-2.2960989475250244,-0.7519952654838562
1714065690916564000,4.48156396484375,-6.732483863830566,3.973069190979004,0.19184745848178864
1714065690926443800,4.49144384765625,-1.5638542175292969,5.694772243499756,-1.0557430982589722
1714065690936322800,4.50132275390625,-3.223243236541748,2.063906192779541,-3.58776593208313
1714065690946202600,4.51120263671875,-0.8318595886230469,0.33750683069229126,-3.6431260108947754
1714065690956083500,4.52108349609375,0.5490837097167969,-0.48618802428245544,-1.657627820968628
1714065690965963300,4.53096337890625,7.048608779907227,-2.0366313457489014,-0.3339375853538513
1714065690975842300,4.54084228515625,6.667487144470215,-4.485514163970947,0.9975453019142151
1714065690985722000,4.55072216796875,0.9331579208374023,-3.698636054992676,1.659151554107666
1714065690995603000,4.56060302734375,-0.6120538711547852,1.9575756788253784,2.140139579772949
1714065691005482500,4.570482421875,-4.679866313934326,4.6964592933654785,1.3571068048477173
1714065691015361800,4.58036181640625,-5.898090362548828,3.218843698501587,-1.315181016921997
1714065691025241600,4.59024169921875,-4.463835716247559,-1.3210450410842896,-4.595968246459961
1714065691035122200,4.6001220703125,2.671902656555176,-3.9188015460968018,-5.411766529083252
1714065691045002000,4.610001953125,6.121392250061035,-2.4981656074523926,0.33202096819877625
1714065691054881000,4.619881103515625,2.6690378189086914,0.6285762786865234,0.2616337537765503
1714065691064761000,4.629760986328125,5.451166152954102,3.2789146900177,0.8043808937072754
1714065691074641700,4.6396416015625,-3.5574951171875,4.396251201629639,2.602112054824829
1714065691084521500,4.649521484375,-3.112542152404785,3.174431085586548,1.9897403717041016
1714065691094400500,4.659400390625,-1.7437028884887695,1.3216806650161743,0.07811854779720306
1714065691104280300,4.6692802734375,1.1360111236572266,-0.7691352367401123,-1.01124107837677
1714065691114161200,4.6791611328125,-1.0115652084350586,-0.36019080877304077,-0.8495970368385315
1714065691124041000,4.689041015625,1.2709360122680664,0.4017500877380371,-0.27657902240753174
1714065691133920000,4.698919921875,4.506085395812988,0.8051155805587769,0.5787124037742615
1714065691143799800,4.7087998046875,-0.27672481536865234,1.2050466537475586,-1.447021484375
1714065691153680600,4.7186806640625,-4.751910209655762,2.1956074237823486,-1.063339352607727
1714065691163560400,4.728560546875,-0.429718017578125,-0.009549573063850403,-1.7034568786621094
1714065691173439500,4.738439453125,1.8976163864135742,-1.9289393424987793,-0.583376407623291
1714065691183319300,4.7483193359375,-0.16357135772705078,2.3289296627044678,1.3984512090682983
1714065691193200000,4.7582001953125,-2.702131748199463,1.4531879425048828,-1.0666961669921875
1714065691203080000,4.768079833984375,4.175411224365234,-4.079468250274658,0.5920296907424927
1714065691212959000,4.777958984375,2.2857303619384766,1.2676148414611816,0.21249419450759888
1714065691222838800,4.7878388671875,-4.722329139709473,3.4270551204681396,-0.6605367660522461
1714065691232719400,4.79771923828125,-2.936361312866211,1.338484287261963,-2.189458131790161
1714065691242599200,4.80759912109375,3.614501953125,-1.077241063117981,-1.8404929637908936
1714065691252478500,4.817478515625,1.9312219619750977,-0.2943851351737976,2.239546775817871
1714065691262358300,4.827358154296875,-1.8612937927246094,-1.16009521484375,0.11129582673311234
1714065691272238800,4.83723876953125,1.7974891662597656,-2.1190240383148193,-1.0604573488235474
1714065691282118700,4.84711865234375,2.163315773010254,2.438713550567627,1.5339698791503906
1714065691291997700,4.856997802734375,-5.563425540924072,4.063936710357666,-0.7130184173583984
1714065691301877800,4.866877685546875,-1.9222116470336914,1.1156673431396484,-1.838402509689331
1714065691311758300,4.87675830078125,1.7747364044189453,-2.678957939147949,-1.239283800125122
1714065691321638100,4.88663818359375,0.3250761032104492,2.823643207550049,1.8051046133041382
1714065691331517200,4.89651708984375,-3.7479066848754883,1.4507832527160645,-0.45780637860298157
1714065691341397000,4.90639697265625,5.978653907775879,-3.544985055923462,0.3638700842857361
1714065691351277800,4.91627783203125,2.9117422103881836,-1.0834345817565918,1.1436755657196045
1714065691361157600,4.92615771484375,-1.8287992477416992,1.89494788646698,-0.07406025379896164
1714065691371036700,4.93603662109375,-3.003870964050293,-1.3444840908050537,-2.6916427612304688
1714065691380916500,4.94591650390625,0.6290178298950195,-0.3583599030971527,-0.5067914128303528
1714065691390797300,4.95579736328125,-0.6644449234008789,1.80375075340271,1.2933622598648071
1714065691400677000,4.965677001953125,0.1473827362060547,-2.2763330936431885,-0.08625304698944092
1714065691410556200,4.97555615234375,3.5796241760253906,-2.0648038387298584,-0.6572428941726685
1714065691420436000,4.98543603515625,-1.7334699630737305,3.777320146560669,0.8165642023086548
1714065691430316500,4.995316650390625,-1.056182861328125,3.7911410331726074,-0.7221055626869202
1714065691440196400,5.0051962890625,1.661808967590332,-1.9580905437469482,-0.7926536202430725
1714065691450075600,5.01507568359375,-1.6238183975219727,1.2605241537094116,1.0455281734466553
1714065691459955500,5.02495556640625,-4.390524387359619,2.44808030128479,0.36235183477401733
1714065691469836000,5.0348359375,1.5189619064331055,-1.3717058897018433,-2.702605962753296
1714065691479715800,5.0447158203125,5.971582412719727,-2.063225030899048,1.132996678352356
1714065691489595000,5.054594970703125,0.6264352798461914,-1.3791674375534058,0.40625038743019104
1714065691499475000,5.064474853515625,-0.9104785919189453,-0.47008275985717773,-0.10098948329687119
1714065691509355500,5.07435546875,0.8379373550415039,-0.649114727973938,-0.42401325702667236
1714065691519235300,5.0842353515625,-2.490622043609619,2.1688289642333984,0.15602314472198486
1714065691529114400,5.0941142578125,-0.6139202117919922,-2.269242286682129,-1.5672225952148438
1714065691538994200,5.103994140625,1.4901399612426758,-0.10146775841712952,-0.08588048070669174
1714065691548875000,5.113875,-3.4932241439819336,1.6624547243118286,1.2556943893432617
1714065691558754800,5.1237548828125,-0.5145273208618164,3.1412744522094727,-0.21843919157981873
1714065691568633900,5.1336337890625,1.1795978546142578,-0.39656519889831543,-1.816699504852295
1714065691578513700,5.143513671875,0.942255973815918,-0.4151400923728943,-0.39579248428344727
1714065691588394500,5.15339453125,-0.4071521759033203,-1.1204371452331543,-0.5318775773048401
1714065691598274300,5.1632744140625,4.217658042907715,-1.6108331680297852,-1.4452905654907227
1714065691608153300,5.1731533203125,-4.02980375289917,2.0405056476593018,-0.760924220085144
1714065691618033200,5.183033203125,-0.5931949615478516,3.4501168727874756,-0.5907444953918457
1714065691627914000,5.1929140625,-0.2214212417602539,-1.7020156383514404,-1.9456907510757446
1714065691637793800,5.202793701171875,1.4201202392578125,-3.02319073677063,-0.4594358801841736
1714065691647672800,5.2126728515625,0.9654865264892578,0.31968390941619873,0.9777659177780151
1714065691657552600,5.222552734375,2.8141727447509766,-3.197326421737671,1.3429511785507202
1714065691667433200,5.23243310546875,-0.18480491638183594,0.14693565666675568,1.09879732131958
1714065691677313000,5.24231298828125,-2.7847180366516113,2.3903136253356934,-1.1145521402359009
1714065691687192000,5.252192138671875,-2.1754488945007324,0.39538609981536865,-1.8039315938949585
1714065691697072000,5.262072021484375,0.5215167999267578,1.7157504558563232,-1.3774051666259766
1714065691706952700,5.27195263671875,-0.33956146240234375,-0.2995266318321228,-0.5026581287384033
1714065691716832500,5.28183251953125,2.2184791564941406,-3.2874248027801514,-0.20478816330432892
1714065691726711600,5.291711669921875,0.9227333068847656,0.7904567718505859,1.9615423679351807
1714065691736591600,5.301591552734375,-3.443173408508301,1.0695521831512451,0.015101172029972076
1714065691746472200,5.31147216796875,2.707477569580078,-0.26986950635910034,1.0288689136505127
1714065691756352000,5.32135205078125,0.1382131576538086,0.05140618979930878,1.4473187923431396
1714065691766231000,5.33123095703125,-2.352982997894287,1.1394307613372803,-1.96641206741333
1714065691776110800,5.34111083984375,0.7526779174804688,-1.8481965065002441,-2.8440659046173096
1714065691785991700,5.35099169921875,0.5500335693359375,1.4081699848175049,0.2643428444862366
1714065691795871500,5.36087158203125,-2.527472972869873,1.03659188747406,-0.13450638949871063
1714065691805750500,5.37075048828125,-0.10896110534667969,-1.5863045454025269,-2.68326997756958
1714065691815630300,5.38063037109375,1.7276029586791992,0.14825883507728577,0.9000222682952881
1714065691825511200,5.39051123046875,0.767674446105957,1.1166517734527588,2.2172040939331055
1714065691835391000,5.400390869140625,2.1269121170043945,-2.900001287460327,-0.5779701471328735
1714065691845270000,5.41027001953125,-2.0336480140686035,0.15275296568870544,-0.053938932716846466
1714065691855149800,5.42014990234375,-4.201667785644531,2.0743415355682373,-2.054845094680786
1714065691865030400,5.430030517578125,2.4266977310180664,-0.4356926381587982,-3.0919690132141113
1714065691874910200,5.43991015625,3.8346710205078125,-1.6310187578201294,1.9673386812210083
1714065691884789500,5.44978955078125,0.7636127471923828,-1.2267388105392456,0.9082070589065552
1714065691894669300,5.45966943359375,-0.9551572799682617,-1.1125775575637817,-0.7882975339889526
1714065691904550000,5.4695498046875,-0.15720748901367188,1.0259246826171875,-1.0110408067703247
1714065691914429700,5.4794296875,-3.5046563148498535,0.810571551322937,-1.4143297672271729
1714065691924308700,5.489308837890625,-0.8088178634643555,-0.5715138912200928,-1.962317705154419
1714065691934188800,5.499188720703125,2.7346200942993164,1.579842448234558,0.12772977352142334
1714065691944069400,5.5090693359375,2.342805862426758,0.11743605136871338,2.555086612701416
1714065691953949200,5.51894921875,2.539858818054199,-3.049253463745117,0.7306293249130249
1714065691963828200,5.528828125,-3.3389787673950195,1.238665223121643,-0.9605737924575806
1714065691973708000,5.5387080078125,-3.7603182792663574,2.123211145401001,-1.8517512083053589
1714065691983588900,5.5485888671875,-0.2611207962036133,-2.3923916816711426,-3.2103219032287598
1714065691993468700,5.55846875,1.9726028442382812,0.8778256177902222,0.008890166878700256
1714065692003347700,5.56834765625,2.6290359497070312,-2.7227652072906494,1.6240270137786865
1714065692013227500,5.5782275390625,2.9852676391601562,-0.0496726930141449,0.9099932909011841
1714065692023108400,5.5881083984375,-4.803080081939697,2.3087120056152344,-0.21491920948028564
1714065692032988200,5.59798828125,-3.7714924812316895,1.4217740297317505,-0.8363074064254761
1714065692042867200,5.6078671875,-0.8390321731567383,-1.1187678575515747,-1.3224077224731445
1714065692052747000,5.6177470703125,0.31411170959472656,1.059590458869934,-1.4453506469726562
1714065692062627800,5.6276279296875,4.072068214416504,-2.186063766479492,1.218807578086853
1714065692072507400,5.63750732421875,2.1487693786621094,0.6125890016555786,1.909249186515808
1714065692082386700,5.64738671875,-2.2341928482055664,-0.42648759484291077,-0.7152284383773804
1714065692092266500,5.6572666015625,-2.1903038024902344,-1.5389615297317505,-1.6059545278549194
1714065692102147000,5.66714697265625,0.5308494567871094,-0.03845330327749252,-1.6338131427764893
1714065692112027000,5.67702685546875,2.7647933959960938,0.39246344566345215,0.5584884881973267
1714065692121906000,5.686906005859375,1.3013114929199219,-3.244229793548584,0.6625197529792786
1714065692131786000,5.696785888671875,-0.29720592498779297,1.0923490524291992,-0.653052031993866
1714065692141666600,5.70666650390625,-2.4983596801757812,2.7882840633392334,0.48723286390304565
1714065692151546400,5.71654638671875,-1.797165870666504,-0.503028392791748,-1.2705224752426147
1714065692161425400,5.72642529296875,1.2450647354125977,-2.015624761581421,0.6256704926490784
1714065692171305200,5.73630517578125,2.314314842224121,-1.9904611110687256,-1.4437241554260254
1714065692181186000,5.74618603515625,2.9747838973999023,0.008698984980583191,2.0709681510925293
1714065692191065900,5.75606591796875,-2.6208596229553223,1.6372523307800293,-0.576517641544342
1714065692200945000,5.76594482421875,-1.5466861724853516,-0.3558143079280853,-1.8761941194534302
1714065692210824700,5.77582470703125,-0.46101951599121094,-0.1707310974597931,-0.1544848084449768
1714065692220705500,5.78570556640625,0.24428176879882812,2.2685720920562744,1.248633623123169
1714065692230585300,5.79558544921875,1.6498537063598633,-1.7638880014419556,-0.07452891021966934
1714065692240464400,5.80546435546875,1.4879741668701172,-0.05177026987075806,1.9920539855957031
1714065692250344200,5.81534423828125,-2.692732334136963,0.2557520270347595,-1.7218481302261353
1714065692260225000,5.82522509765625,-1.8812990188598633,-0.704075276851654,-2.0013785362243652
1714065692270104600,5.8351044921875,0.7764778137207031,1.3897004127502441,1.5974984169006348
1714065692279983900,5.84498388671875,-0.14966487884521484,-1.8238461017608643,0.2409270703792572
1714065692289863700,5.85486376953125,3.530877113342285,-0.47695672512054443,-1.1673603057861328
1714065692299744300,5.864744140625,-1.6768617630004883,1.0621755123138428,1.4242883920669556
1714065692309624000,5.8746240234375,-0.5310277938842773,-1.0704327821731567,-0.4508918225765228
1714065692319503000,5.884503173828125,2.2575292587280273,-1.7597875595092773,-0.34537506103515625
1714065692329383000,5.8943828125,-1.8769941329956055,0.4459306597709656,-0.911519467830658
1714065692339263700,5.904263671875,0.04081439971923828,-2.509692430496216,-0.8197817802429199
1714065692349143600,5.9141435546875,1.244673728942871,0.06914304196834564,0.8692174553871155
1714065692359022600,5.924022705078125,-3.4749903678894043,1.600324273109436,-0.3202052712440491
1714065692368902400,5.93390234375,-0.0085296630859375,0.07684572041034698,-1.0453239679336548
1714065692378783200,5.943783203125,0.7099924087524414,1.9171943664550781,-0.04271721839904785
1714065692388663000,5.9536630859375,1.2547225952148438,-0.6905274391174316,-1.3130369186401367
1714065692398542000,5.9635419921875,2.175699234008789,-1.7575671672821045,-0.20598828792572021
1714065692408422000,5.973421875,-0.8675098419189453,-0.7587098479270935,-0.35977208614349365
1714065692418302700,5.983302734375,-2.6660871505737305,-0.9509486556053162,-2.7152562141418457
1714065692428182500,5.9931826171875,1.099440574645996,0.25701090693473816,0.7411513328552246
1714065692438061600,6.0030615234375,-1.0430126190185547,0.6804521679878235,1.0771958827972412
1714065692447941400,6.01294140625,1.3670425415039062,-3.171320676803589,-0.6503309011459351
1714065692457822000,6.022822021484375,1.041426658630371,1.269200086593628,0.825684130191803
1714065692467701800,6.03270166015625,-3.164515495300293,0.8002637028694153,-2.505704879760742
1714065692477580800,6.042580810546875,-0.04982185363769531,-0.20085850358009338,-1.114762306213379
1714065692487460600,6.052460693359375,1.5765056610107422,1.382491946220398,1.6620068550109863
1714065692497341400,6.062341552734375,0.13253498077392578,-1.208190679550171,0.11235988140106201
1714065692507221200,6.07222119140625,1.6392288208007812,-1.21285879611969,0.1124294251203537
1714065692517100300,6.082100341796875,-1.4312458038330078,0.577482283115387,-0.7647260427474976
1714065692526980000,6.09197998046875,-2.0344462394714355,-0.8064230680465698,-2.60086989402771
1714065692536861000,6.10186083984375,2.1235389709472656,-0.6762181520462036,-0.09072734415531158
1714065692546740700,6.11174072265625,0.15785598754882812,0.08038926124572754,2.4394543170928955
1714065692556619800,6.121619873046875,2.510313034057617,-4.030430793762207,-0.033112525939941406
1714065692566499600,6.13149951171875,-1.2522296905517578,0.5743752717971802,-0.8838000893592834
1714065692576380400,6.14138037109375,-3.4250426292419434,1.546263337135315,-1.8795011043548584
1714065692586260200,6.15126025390625,-1.6353588104248047,0.342231422662735,-1.9685593843460083
1714065692596139300,6.16113916015625,3.8302478790283203,1.22910737991333,0.35254132747650146
1714065692606019000,6.17101904296875,3.56325626373291,-3.6824464797973633,1.5760365724563599
1714065692615899600,6.180899658203125,3.7272634506225586,-2.4276349544525146,1.856663703918457
1714065692625779500,6.190779541015625,-3.450438976287842,1.4280693531036377,1.2728686332702637
1714065692635658500,6.200658447265625,-3.5445327758789062,1.4244959354400635,-0.0485183447599411
1714065692645538600,6.21053857421875,-0.8849668502807617,0.1406412273645401,-2.797910451889038
1714065692655419100,6.220419189453125,1.424886703491211,-3.75058913230896,-2.9391586780548096
1714065692665299000,6.230298828125,5.033291816711426,-2.718413829803467,0.6211473941802979
1714065692675178000,6.240177978515625,-0.36864662170410156,2.131011724472046,1.3834229707717896
1714065692685057800,6.250057861328125,-1.6236190795898438,2.271101236343384,0.8572168350219727
1714065692694938600,6.259938720703125,-1.3642187118530273,-1.3043363094329834,-1.2439502477645874
1714065692704818400,6.269818359375,-2.6986804008483887,1.2629998922348022,-1.8365015983581543
1714065692714697500,6.279697509765625,3.4933576583862305,-1.9835470914840698,0.5874087810516357
1714065692724577300,6.289577392578125,4.263370513916016,-1.4263873100280762,1.2934341430664062
1714065692734458000,6.2994580078125,-3.024109363555908,1.1252756118774414,0.10422803461551666
1714065692744338000,6.309337890625,-2.4055042266845703,0.1920033097267151,-0.6564511060714722
1714065692754217000,6.319217041015625,-3.214627742767334,0.5082433223724365,-0.281394898891449
1714065692764096800,6.3290966796875,-0.2627372741699219,-0.201860710978508,-2.4208474159240723
1714065692773977300,6.338977294921875,4.017152786254883,-1.999732255935669,0.012595787644386292
1714065692783857200,6.348857177734375,0.1881704330444336,1.6280765533447266,2.01090407371521
1714065692793736200,6.358736083984375,0.030059814453125,-1.8024513721466064,-1.012696623802185
1714065692803616300,6.3686162109375,-0.05341339111328125,-1.3794466257095337,1.3234018087387085
1714065692813496800,6.378496826171875,-3.797736167907715,1.013554334640503,0.1763114184141159
1714065692823376600,6.388376708984375,0.5843238830566406,-2.0935845375061035,-1.3137351274490356
1714065692833255700,6.398255615234375,-2.1044678688049316,1.0618971586227417,-1.0874820947647095
1714065692843135500,6.408135498046875,2.812809944152832,1.1739224195480347,-0.7591772079467773
1714065692853016300,6.418016357421875,-0.852747917175293,-1.5854270458221436,0.5241298675537109
1714065692862896000,6.427896240234375,2.034613609313965,-1.5663297176361084,0.928132951259613
1714065692872775200,6.437775146484375,0.8075895309448242,-1.9354490041732788,0.8773635625839233
1714065692882655000,6.447655029296875,-0.04199790954589844,-0.20234377682209015,0.8068796396255493
1714065692892535800,6.457535888671875,-5.564116477966309,2.53670072555542,-1.6207994222640991
1714065692902415600,6.46741552734375,-0.05566692352294922,0.13002224266529083,-3.291883707046509
1714065692912294700,6.477294677734375,2.380096435546875,0.17831698060035706,0.0642523393034935
1714065692922174500,6.487174560546875,1.485896110534668,0.04879475384950638,0.92583829164505
1714065692932055000,6.497054931640625,0.21936321258544922,-1.6200566291809082,-0.14284543693065643
1714065692941934800,6.506934814453125,-1.1424989700317383,-0.31709155440330505,-0.32853463292121887
1714065692951814000,6.51681396484375,-2.4775242805480957,0.8597796559333801,-1.2762563228607178
1714065692961694000,6.52669384765625,2.3499889373779297,-0.38600024580955505,0.3320326507091522
1714065692971574500,6.536574462890625,0.22571372985839844,-1.453492522239685,-1.3605494499206543
1714065692981454300,6.546454345703125,1.3979158401489258,-3.7131524085998535,-0.7491947412490845
1714065692991333400,6.55633349609375,-0.9673175811767578,0.0651656836271286,1.4321266412734985
1714065693001213200,6.566213134765625,-4.3302459716796875,2.020399570465088,-0.5933977961540222
1714065693011094000,6.576093994140625,-1.3991823196411133,2.039400815963745,-2.58955979347229
1714065693020973800,6.585973876953125,2.867036819458008,0.30012747645378113,0.24989917874336243
1714065693030852900,6.595852783203125,2.124424934387207,-3.3600945472717285,0.7686744332313538
1714065693040732700,6.605732666015625,2.7592267990112305,-1.7423925399780273,0.14557071030139923
1714065693050613500,6.615613525390625,-0.9446249008178711,0.07708020508289337,-1.6509488821029663
1714065693060493300,6.625493408203125,-3.5382533073425293,0.33527934551239014,-0.986876904964447
1714065693070372400,6.635372314453125,1.4236278533935547,-0.4268079400062561,0.7483235597610474
1714065693080252200,6.645252197265625,-0.2610960006713867,-1.1219017505645752,0.045895885676145554
1714065693090132700,6.6551328125,1.146204948425293,0.6029773354530334,-1.0043455362319946
1714065693100012500,6.665012451171875,-1.3283443450927734,1.93763267993927,1.0670517683029175
1714065693109891800,6.674891845703125,-1.5807304382324219,-1.108121633529663,-1.7503787279129028
1714065693119771600,6.684771728515625,-0.28974151611328125,1.5033254623413086,-1.8722325563430786
1714065693129652200,6.69465234375,0.7331132888793945,-1.3368794918060303,0.4951770007610321
1714065693139532000,6.704531982421875,1.5457630157470703,-2.1529383659362793,1.560248613357544
1714065693149411000,6.7144111328125,1.1791267395019531,-0.8178982734680176,-1.2345681190490723
1714065693159291000,6.724290771484375,0.19736099243164062,-0.9204473495483398,2.154207944869995
1714065693169171700,6.734171630859375,1.3696403503417969,-2.4450581073760986,-1.0865087509155273
1714065693179051500,6.744051513671875,-1.0694551467895508,0.49550753831863403,-1.4155306816101074
1714065693188930600,6.7539306640625,1.2524747848510742,-1.5283969640731812,-0.8965020179748535
1714065693198810400,6.763810302734375,-0.27400779724121094,1.3822124004364014,0.47303444147109985
1714065693208691200,6.773691162109375,-5.314884185791016,2.2383947372436523,-0.6284845471382141
1714065693218571000,6.783571044921875,-1.215785026550293,2.5744986534118652,0.5407729744911194
1714065693228450000,6.793449951171875,1.4141016006469727,1.7291312217712402,0.3207559287548065
1714065693238329900,6.803329833984375,1.166971206665039,-1.6196480989456177,-2.410088539123535
1714065693248210400,6.81321044921875,3.912970542907715,-3.15105938911438,-0.7645432353019714
1714065693258090500,6.823090576171875,-2.1532750129699707,0.32960519194602966,0.6648728847503662
1714065693267969500,6.832969482421875,-2.6068501472473145,-2.097532272338867,-2.3603765964508057
1714065693277849300,6.842849365234375,-1.3705930709838867,-1.7463905811309814,-1.698981761932373
1714065693287730000,6.85272998046875,-0.4069061279296875,-0.1318138986825943,1.7100812196731567
1714065693297609700,6.862609619140625,3.104893684387207,-0.8447115421295166,0.6063669919967651
1714065693307488800,6.87248876953125,-4.261029243469238,0.99200040102005,-0.49432656168937683
1714065693317368600,6.88236865234375,-1.4779481887817383,2.885972261428833,-2.551734447479248
1714065693327249400,6.89224951171875,3.416802406311035,-1.718289852142334,-1.5658442974090576
1714065693337129200,6.902129150390625,0.5424575805664062,-6.173890113830566,-1.7379752397537231
1714065693347008300,6.91200830078125,3.1581811904907227,-8.535309791564941,-1.5321911573410034
1714065693356888000,6.92188818359375,0.6092681884765625,-6.49758768081665,1.2482061386108398
1714065693366769000,6.931768798828125,-1.5896549224853516,-0.5357131361961365,0.40965503454208374
1714065693376648700,6.941648681640625,-0.4425678253173828,-1.4250168800354004,-1.8516151905059814
1714065693386527700,6.95152783203125,-1.1534833908081055,-3.696993350982666,-2.6767003536224365
1714065693396407600,6.961407470703125,0.47813987731933594,-0.5589080452919006,0.3958223760128021
1714065693406288100,6.9712880859375,0.1189117431640625,0.8661203384399414,0.9066198468208313
1714065693416168200,6.981168212890625,2.0076770782470703,-1.3750954866409302,-0.7530012726783752
1714065693426047000,6.991046875,0.6199550628662109,-3.747206449508667,0.3711100220680237
1714065693435927000,7.000927001953125,-2.729800224304199,-2.9506750106811523,-1.4449493885040283
1714065693445807600,7.0108076171875,3.1493959426879883,-2.6277432441711426,-0.6442174315452576
1714065693455687400,7.0206875,-1.8615999221801758,-3.802128553390503,1.3837581872940063
1714065693465566500,7.03056640625,0.7984437942504883,-4.731060028076172,-2.411149263381958
1714065693475446500,7.040446533203125,-1.305215835571289,-2.4632749557495117,1.0000377893447876
1714065693485327000,7.0503271484375,-0.4085702896118164,1.6314688920974731,0.35216963291168213
1714065693495207000,7.06020703125,0.7556085586547852,-0.11068100482225418,-1.1322541236877441
1714065693505086000,7.0700859375,1.2240610122680664,-3.060303211212158,-2.2578554153442383
1714065693514965800,7.0799658203125,-1.5230493545532227,-4.575108051300049,-0.17421764135360718
1714065693524846600,7.0898466796875,2.1489601135253906,-2.383455514907837,1.107304573059082
1714065693534726400,7.099726318359375,1.5395984649658203,-1.6372426748275757,-0.2224065214395523
1714065693544605400,7.10960546875,-2.077205181121826,-1.950239658355713,-0.8274502754211426
1714065693554485200,7.1194853515625,-2.172421932220459,-2.2608377933502197,-0.8356207013130188
1714065693564365800,7.12936572265625,-0.3735980987548828,-2.573676586151123,-2.6727519035339355
1714065693574246000,7.139245849609375,-0.14546775817871094,-1.5116568803787231,1.2685528993606567
1714065693584124700,7.149124755859375,-1.6872987747192383,-0.19462114572525024,-0.31982994079589844
1714065693594004700,7.159004638671875,1.997481346130371,-1.651126742362976,-2.3478941917419434
1714065693603885300,7.16888525390625,0.7125864028930664,-3.952458143234253,0.03977827727794647
1714065693613765000,7.17876513671875,-0.6024360656738281,-2.436591863632202,0.04569084942340851
1714065693623644200,7.18864404296875,0.2016162872314453,-2.467686891555786,0.39319777488708496
1714065693633524200,7.198524169921875,-0.07051563262939453,-0.6069217324256897,-0.6982983350753784
1714065693643404800,7.20840478515625,-1.1661348342895508,-2.727598190307617,-0.39529338479042053
1714065693653284600,7.21828466796875,0.48641300201416016,-3.593386173248291,-2.561331272125244
1714065693663163600,7.22816357421875,0.3141031265258789,-2.8523809909820557,-3.08658504486084
1714065693673043500,7.23804345703125,-0.038303375244140625,-2.7826740741729736,0.7578650712966919
1714065693682924300,7.24792431640625,0.1174306869506836,0.39209428429603577,2.348095655441284
1714065693692804000,7.25780419921875,0.3943462371826172,-0.9001376032829285,-0.032853856682777405
1714065693702683100,7.26768310546875,-0.4065122604370117,-2.5223212242126465,-1.584871530532837
1714065693712563000,7.27756298828125,-1.6307401657104492,-1.9854358434677124,1.9397449493408203
1714065693722443800,7.28744384765625,0.21650409698486328,-3.219174385070801,-2.4096879959106445
1714065693732323300,7.2973232421875,2.357607841491699,-1.7065373659133911,-1.6023694276809692
1714065693742202600,7.30720263671875,1.2073078155517578,-2.7639942169189453,-1.0106866359710693
1714065693752082400,7.31708251953125,1.4668779373168945,-1.9692233800888062,2.610776901245117
1714065693761963000,7.326962890625,0.4360818862915039,-3.290064811706543,1.0403928756713867
1714065693771842800,7.3368427734375,-1.877049446105957,-2.000351667404175,-0.683161199092865
1714065693781721900,7.346721923828125,-2.295236110687256,0.19919505715370178,-0.5077212452888489
1714065693791602000,7.356601806640625,-2.258528232574463,-2.045152187347412,-0.005885258316993713
1714065693801482500,7.366482421875,0.5221185684204102,-2.2774875164031982,-0.9034802317619324
1714065693811362300,7.3763623046875,2.218801498413086,-0.31727057695388794,-1.737907886505127
1714065693821241300,7.386241455078125,1.004913330078125,-1.9185621738433838,-1.0428130626678467
1714065693831121200,7.39612109375,-1.2041435241699219,-2.175739288330078,0.34489762783050537
1714065693841002000,7.406001953125,-0.9788398742675781,-2.8212907314300537,0.17491787672042847
1714065693850881800,7.4158818359375,0.8657970428466797,-0.7195678353309631,2.7501235008239746
1714065693860760800,7.4257607421875,0.112213134765625,-0.5882093906402588,0.537615180015564
1714065693870640600,7.435640625,-0.16956138610839844,-3.0698301792144775,-1.5128178596496582
1714065693880521500,7.445521484375,-1.9341049194335938,-3.081890344619751,1.107110619544983
1714065693890401000,7.455401123046875,0.36063671112060547,-1.8658157587051392,-2.633424997329712
1714065693900280300,7.4652802734375,-0.024854660034179688,-1.938476800918579,-1.612424373626709
1714065693910160100,7.47516015625,0.20736408233642578,-0.9223589897155762,1.444446086883545
1714065693920040700,7.485040771484375,-0.6354646682739258,-1.1846123933792114,1.3999840021133423
1714065693929920500,7.49492041015625,0.0947103500366211,-3.220576047897339,-1.01506769657135
1714065693939799600,7.504799560546875,0.3595619201660156,-2.3184072971343994,-0.06399188935756683
1714065693949679400,7.514679443359375,0.041428565979003906,-0.15891563892364502,-1.083933711051941
1714065693959560200,7.524560302734375,1.3527307510375977,-1.861662745475769,1.52042818069458
1714065693969440000,7.53443994140625,-1.5662212371826172,-3.14300274848938,0.9803510904312134
1714065693979319000,7.544319091796875,1.6759166717529297,-2.0006136894226074,-0.5954669117927551
1714065693989198800,7.55419873046875,0.5895328521728516,-1.6890777349472046,1.0418403148651123
1714065693999079700,7.56407958984375,0.6234283447265625,-2.3764729499816895,-1.2395451068878174
1714065694008959500,7.57395947265625,-1.1337099075317383,-2.3120830059051514,2.3841159343719482
1714065694018838500,7.583838623046875,-1.6925344467163086,-1.0022445917129517,-0.7537987232208252
1714065694028718300,7.59371826171875,-1.4857912063598633,-2.99174165725708,0.18201088905334473
1714065694038599200,7.60359912109375,0.6551294326782227,0.0023750662803649902,-1.4841232299804688
1714065694048479000,7.61347900390625,1.0787134170532227,-0.2645823061466217,0.3858368992805481
1714065694058358000,7.62335791015625,-0.3805351257324219,-1.6732312440872192,1.3536003828048706
1714065694068237800,7.63323779296875,-0.5109767913818359,-2.745421886444092,0.5656691789627075
1714065694078118400,7.643118408203125,1.4240293502807617,-3.322875499725342,-1.5529874563217163
1714065694087998200,7.652998291015625,1.3451623916625977,-2.474398374557495,-1.6837798357009888
1714065694097877200,7.662877197265625,0.3210296630859375,-2.023888349533081,-1.9971683025360107
1714065694107757300,7.67275732421875,0.47792720794677734,-0.2657829225063324,2.361358165740967
1714065694117638000,7.682637939453125,-0.9124441146850586,-0.44111567735671997,2.6351027488708496
1714065694127517700,7.692517578125,-1.234334945678711,-1.8715415000915527,-0.42411163449287415
1714065694137396700,7.702396728515625,-1.2096443176269531,-2.347123384475708,1.7275619506835938
1714065694147276500,7.712276611328125,0.8589925765991211,-2.141266107559204,-1.0016543865203857
1714065694157157400,7.722157470703125,-0.5328197479248047,-0.16949844360351562,-1.3051680326461792
1714065694167037200,7.732037109375,1.2195062637329102,-1.6955060958862305,1.7411572933197021
1714065694176916200,7.741916259765625,-1.0569591522216797,-1.9084992408752441,1.60710608959198
1714065694186796000,7.751796142578125,-0.45749664306640625,-3.2107419967651367,-1.902737021446228
1714065694196676600,7.761676513671875,1.4539012908935547,-0.9651691317558289,-0.40876471996307373
1714065694206556400,7.771556396484375,0.32074451446533203,-0.5651880502700806,-2.3260860443115234
1714065694216435500,7.781435546875,-0.01699352264404297,-1.6357972621917725,-2.128870964050293
1714065694226315500,7.7913154296875,-0.9963407516479492,-0.27699339389801025,-0.042766302824020386
1714065694236196000,7.801196044921875,-0.3366851806640625,-2.0179691314697266,2.099465847015381
1714065694246076000,7.811075927734375,-1.5502090454101562,-0.06552743911743164,0.7760317921638489
1714065694255955000,7.820954833984375,-0.14133930206298828,-2.83939528465271,-0.65959233045578
1714065694265834800,7.830834716796875,2.7986202239990234,-3.7090084552764893,0.675460934638977
1714065694275715600,7.840715576171875,1.100351333618164,-1.9774553775787354,0.6182595491409302
1714065694285595400,7.850595458984375,-0.7915430068969727,0.43562233448028564,0.02369140088558197
1714065694295474400,7.860474365234375,-1.221592903137207,-1.1152251958847046,0.6599926352500916
1714065694305354200,7.870354248046875,0.33655261993408203,-1.9409152269363403,1.627031922340393
1714065694315235000,7.880235107421875,-0.9158267974853516,-3.0917866230010986,-0.7124282717704773
1714065694325115000,7.890114990234375,0.2182455062866211,-1.3274139165878296,0.20043283700942993
1714065694334994000,7.899993896484375,1.495549201965332,-0.38539350032806396,-0.17381888628005981
1714065694344873700,7.909873779296875,-0.47318172454833984,-0.6413304805755615,-2.1912343502044678
1714065694354754300,7.91975439453125,-0.3223094940185547,-2.892929792404175,-2.07574200630188
1714065694364634000,7.929634033203125,1.647028923034668,-3.4057743549346924,2.1621198654174805
1714065694374513200,7.93951318359375,0.691533088684082,-0.971203088760376,3.294980049133301
1714065694384393200,7.949393310546875,-0.8693361282348633,-0.9784757494926453,-0.020173490047454834
1714065694394273800,7.959273681640625,-2.0898289680480957,-0.8882508277893066,-1.469738245010376
1714065694404153600,7.969153564453125,-1.4645576477050781,-1.8315680027008057,-1.7385116815567017
1714065694414032600,7.97903271484375,-0.3273735046386719,-1.3666881322860718,-0.8655169010162354
1714065694423912400,7.988912353515625,0.9459657669067383,-1.065276861190796,1.3620437383651733
1714065694433793300,7.998793212890625,0.48729610443115234,-0.8993328213691711,0.023702502250671387
1714065694443673000,8.008673095703125,-0.6106081008911133,-1.7046732902526855,-1.9598232507705688
1714065694453552000,8.01855224609375,0.013757705688476562,-0.9980478286743164,0.16545426845550537
1714065694463432000,8.028431884765626,1.1175642013549805,-0.30496644973754883,3.532465934753418
1714065694473312800,8.038312744140624,0.7667226791381836,-2.0366311073303223,0.9650257229804993
1714065694483192600,8.048192626953124,-1.2342071533203125,-2.663219451904297,0.696751058101654
1714065694493071600,8.058071533203124,-0.932647705078125,-1.0685341358184814,0.15315784513950348
1714065694502951400,8.067951416015624,1.2171621322631836,0.4952617287635803,0.3773408532142639
1714065694512832000,8.07783203125,0.5460710525512695,-0.8466541767120361,-0.6626405715942383
1714065694522711800,8.0877119140625,-0.6419515609741211,-2.4722390174865723,-1.2119027376174927
1714065694532590800,8.0975908203125,-1.2992401123046875,-1.0274651050567627,-0.33290937542915344
1714065694542471000,8.107470947265625,0.29439544677734375,-2.040114164352417,0.19383518397808075
1714065694552351500,8.1173515625,0.8666267395019531,-1.0316174030303955,1.1117850542068481
1714065694562231300,8.127231201171876,0.8238325119018555,-2.0029332637786865,-0.47249871492385864
1714065694572110300,8.1371103515625,-0.620661735534668,-1.1095030307769775,1.561589241027832
1714065694581990100,8.146990234375,-0.21102523803710938,-3.096562623977661,-0.5125566720962524
1714065694591871000,8.15687109375,1.598623275756836,-0.5767943859100342,1.5605075359344482
1714065694601750800,8.166750732421875,0.18279743194580078,0.6740930080413818,1.6908165216445923
1714065694611629800,8.1766298828125,-1.2400541305541992,-2.0074572563171387,-0.5783780813217163
1714065694621509600,8.186509521484375,-0.7549638748168945,-1.838670253753662,0.8822533488273621
1714065694631390200,8.19639013671875,-0.7842340469360352,-1.3379013538360596,-1.5398094654083252
1714065694641270000,8.20627001953125,0.29071712493896484,-0.38040512800216675,-0.8063334822654724
1714065694651149000,8.216149169921875,0.4670286178588867,-2.7653820514678955,-0.5812355279922485
1714065694661029000,8.226029052734376,0.22430896759033203,-1.5393900871276855,-0.07387660443782806
1714065694670909700,8.23590966796875,-0.3303365707397461,-0.24684256315231323,0.19017039239406586
1714065694680789500,8.24578955078125,-0.2643918991088867,0.24236226081848145,0.2480422407388687
1714065694690668500,8.25566845703125,-0.041351318359375,-1.6873691082000732,0.8451447486877441
1714065694700548400,8.26554833984375,-0.14652061462402344,-1.2309918403625488,0.11617107689380646
1714065694710429200,8.27542919921875,0.05202484130859375,-1.230224370956421,0.6779585480690002
1714065694720309000,8.28530908203125,0.13811779022216797,-1.0159103870391846,1.2812087535858154
1714065694730188000,8.29518798828125,0.5343103408813477,-1.828507661819458,0.912492036819458
1714065694740067800,8.30506787109375,-0.013825416564941406,-1.7973603010177612,0.7178043723106384
1714065694749948700,8.31494873046875,-0.8114156723022461,-1.7987401485443115,-1.4463579654693604
1714065694759828200,8.324828125,-0.5063142776489258,-0.90216463804245,0.23419484496116638
1714065694769707500,8.33470751953125,0.5074567794799805,-0.1488502025604248,1.0364489555358887
1714065694779587300,8.34458740234375,0.6829376220703125,-0.39931607246398926,0.0005472525954246521
1714065694789468000,8.354468017578125,-0.15703201293945312,-0.35581594705581665,0.2536385655403137
1714065694799347700,8.36434765625,-0.6412410736083984,-0.5835936665534973,-0.5472621321678162
1714065694809226800,8.374226806640625,-0.2071666717529297,-0.6760100722312927,-0.7624937891960144
1714065694819106600,8.3841064453125,0.8058385848999023,-1.7348299026489258,0.4518088102340698
1714065694828987400,8.3939873046875,0.056382179260253906,-0.9534992575645447,0.30730926990509033
1714065694838867200,8.4038671875,-0.5358791351318359,-0.8246163129806519,0.36926600337028503
1714065694848746200,8.413746337890625,0.4444112777709961,-1.5862611532211304,0.38606566190719604
1714065694858626000,8.4236259765625,-0.05812835693359375,-0.8433906435966492,0.5978618264198303
1714065694868507000,8.4335068359375,-0.5615987777709961,-1.0669114589691162,0.26248469948768616
1714065694878386700,8.44338671875,-0.07538890838623047,-1.6489379405975342,0.42535313963890076
1714065694888265500,8.453265380859374,0.08010673522949219,-1.115933895111084,0.2161862552165985
1714065694898145500,8.4631455078125,0.08982563018798828,-0.7691909670829773,0.06475707143545151
1714065694908026000,8.473026123046875,0.015601158142089844,-1.7362059354782104,0.0647689551115036
1714065694917906000,8.482906005859375,0.227691650390625,-1.5604102611541748,0.1665276288986206
1714065694927785000,8.492784912109375,-0.25274181365966797,0.3271816074848175,0.5532639622688293
1714065694937664800,8.502664794921875,-0.1682271957397461,-0.5124973654747009,-0.0623011440038681
1714065694947545600,8.512545654296876,-0.31063175201416016,-1.156982660293579,0.28360286355018616
1714065694957425400,8.52242529296875,-0.061072349548339844,-1.764725685119629,0.6364003419876099
1714065694967304400,8.532304443359376,0.3163442611694336,-2.439037322998047,0.5531386733055115
1714065694977184300,8.542184326171874,0.682652473449707,-2.061579704284668,0.5393876433372498
1714065694987065000,8.552065185546875,-0.042778968811035156,0.19845443964004517,0.12869319319725037
1714065694996945000,8.56194482421875,-0.5462732315063477,0.043869972229003906,-0.19256803393363953
1714065695006823700,8.57182373046875,-0.2273101806640625,-0.9116621017456055,-0.01189904659986496
1714065695016703700,8.581703857421875,0.4011993408203125,-0.6124776005744934,0.3767626881599426
1714065695026584300,8.591584228515625,0.11116504669189453,-0.2821802496910095,-0.13613012433052063
1714065695036464000,8.601464111328125,-0.1353015899658203,-0.12885111570358276,0.36272040009498596
1714065695046343200,8.61134326171875,-0.1207427978515625,0.4480111598968506,0.503108561038971
1714065695056223000,8.621222900390626,0.0634622573852539,0.6811108589172363,0.2612597942352295
1714065695066103800,8.631103759765624,0.09431743621826172,0.4091327488422394,0.23710285127162933
1714065695075983600,8.640983642578124,-0.03253650665283203,0.45042848587036133,0.08200639486312866
1714065695085862700,8.650862548828124,-0.0133056640625,0.7005919814109802,0.13708069920539856
1714065695095742500,8.660742431640625,-0.006068229675292969,0.3913159668445587,0.1291464865207672
1714065695105623300,8.670623291015625,-0.08483695983886719,0.13511145114898682,0.24564534425735474
1714065695115502800,8.6805029296875,-0.015376091003417969,0.027243316173553467,0.1758972853422165
1714065695125382100,8.690382080078125,0.09449577331542969,0.19165045022964478,0.264281302690506
1714065695135262000,8.700261962890625,0.05604743957519531,0.4490273892879486,0.28803813457489014
1714065695145142500,8.710142578125,0.027274131774902344,0.4123806953430176,0.0893273577094078
1714065695155022300,8.720022216796876,-0.03246307373046875,0.34251245856285095,0.1751783788204193
1714065695164901400,8.7299013671875,-0.08728694915771484,0.19389212131500244,0.16264225542545319
1714065695174781200,8.73978125,-0.04168891906738281,0.16719621419906616,0.2290656417608261
1714065695184662000,8.749662109375,0.053946495056152344,0.2719119191169739,0.2503291368484497
1714065695194541800,8.759541748046875,0.07293224334716797,0.3908156156539917,0.21433568000793457
1714065695204420900,8.7694208984375,0.05128192901611328,0.37819692492485046,0.20695963501930237
1714065695214300700,8.77930078125,0.0010175704956054688,0.25802361965179443,0.1420559287071228
1714065695224181500,8.789181396484375,-0.07777881622314453,0.20262980461120605,0.1655542254447937
1714065695234061300,8.799061279296875,-0.06086158752441406,0.226063072681427,0.23196092247962952
1714065695243940400,8.8089404296875,0.020501136779785156,0.287766695022583,0.2124892920255661
1714065695253820200,8.818820068359376,0.07778072357177734,0.3325992822647095,0.2194560170173645
1714065695263700700,8.82870068359375,0.07282543182373047,0.3128407299518585,0.18807512521743774
1714065695273580500,8.83858056640625,0.012955665588378906,0.2692510485649109,0.16858334839344025
1714065695283459600,8.84845947265625,-0.05872535705566406,0.2398574948310852,0.18723911046981812
1714065695293339600,8.858339599609375,-0.08005809783935547,0.263316810131073,0.21552112698554993
1714065695303220200,8.86822021484375,-0.0153656005859375,0.2795538306236267,0.20790134370326996
1714065695313100000,8.87810009765625,0.05634117126464844,0.2934819161891937,0.202938973903656
1714065695322979000,8.88797900390625,0.08964920043945312,0.29053789377212524,0.19309234619140625
1714065695332859000,8.89785888671875,0.03928089141845703,0.27554023265838623,0.17610600590705872
1714065695342739700,8.90773974609375,-0.04917335510253906,0.28207308053970337,0.1900871843099594
1714065695352619500,8.91761962890625,-0.0776834487915039,0.26017314195632935,0.20415382087230682
1714065695362498600,8.92749853515625,-0.036866188049316406,0.2526571750640869,0.2014591246843338
1714065695372378400,8.93737841796875,0.044437408447265625,0.25698018074035645,0.18205438554286957
1714065695382259000,8.947259033203125,0.094482421875,0.2802768349647522,0.17941498756408691
1714065695392138800,8.957138671875,0.05126380920410156,0.3130677044391632,0.1909904032945633
1714065695402017800,8.967017822265625,-0.03483009338378906,0.2884618937969208,0.20731312036514282
1714065695411897900,8.97689794921875,-0.08726882934570312,0.25926125049591064,0.1997232437133789
1714065695421778400,8.9867783203125,-0.055980682373046875,0.22786593437194824,0.20182526111602783
1714065695431658200,8.996658203125,0.030145645141601562,0.24419087171554565,0.18469664454460144
1714065695441537300,9.006537353515625,0.08850383758544922,0.2849079370498657,0.170048326253891
1714065695451417000,9.0164169921875,0.0799703598022461,0.3108205795288086,0.18613922595977783
1714065695461298000,9.0262978515625,-0.01316070556640625,0.28698253631591797,0.19253605604171753
1714065695471177700,9.036177734375,-0.08826255798339844,0.23999983072280884,0.18234698474407196
1714065695481056800,9.046056884765624,-0.07736015319824219,0.20792478322982788,0.17010124027729034
1714065695490936600,9.0559365234375,0.018111228942871094,0.21405142545700073,0.15335117280483246
1714065695500817200,9.065817138671875,0.06961631774902344,0.2506808936595917,0.15805919468402863
1714065695510697000,9.075697021484375,0.08730316162109375,0.27963727712631226,0.16268880665302277
1714065695520576000,9.085575927734375,0.01993560791015625,0.2561996579170227,0.17902109026908875
1714065695530456000,9.0954560546875,-0.06749725341796875,0.21902751922607422,0.17377464473247528
1714065695540336600,9.105336669921876,-0.07812976837158203,0.18730205297470093,0.15449047088623047
1714065695550216400,9.115216552734376,-0.015605926513671875,0.19377249479293823,0.13093800842761993
1714065695560095500,9.125095458984376,0.06471061706542969,0.22603118419647217,0.1336742341518402
1714065695569975300,9.134975341796874,0.08953285217285156,0.24115416407585144,0.14566293358802795
1714065695579856100,9.144856201171875,0.040961265563964844,0.24425432085990906,0.16686013340950012
1714065695589736000,9.15473583984375,-0.04446125030517578,0.2050457000732422,0.15947064757347107
1714065695599615000,9.164614990234375,-0.08608245849609375,0.1735532283782959,0.15690423548221588
1714065695609494800,9.174494873046875,-0.03048992156982422,0.17083603143692017,0.13801155984401703
1714065695619375400,9.184375244140625,0.045365333557128906,0.18935197591781616,0.12414217740297318
1714065695629255400,9.19425537109375,0.09641265869140625,0.2311011552810669,0.13157300651073456
1714065695639134200,9.20413427734375,0.07126712799072266,0.22495189309120178,0.14595094323158264
1714065695649014300,9.21401416015625,-0.014666557312011719,0.20477989315986633,0.15301842987537384
1714065695658894800,9.223894775390624,-0.09916210174560547,0.15210407972335815,0.14348876476287842
1714065695668774700,9.233774658203124,-0.057476043701171875,0.14739012718200684,0.12941774725914001
1714065695678653700,9.24365380859375,0.02353668212890625,0.1474631428718567,0.10863734781742096
1714065695688533500,9.253533447265625,0.08201217651367188,0.17813950777053833,0.11174529045820236
1714065695698414300,9.263414306640625,0.07358551025390625,0.20583170652389526,0.12174531072378159
1714065695708294100,9.273294189453125,0.0111541748046875,0.18833264708518982,0.13628706336021423
1714065695718173200,9.283173095703125,-0.0808420181274414,0.1499374508857727,0.13881543278694153
1714065695728053000,9.293052978515625,-0.07242870330810547,0.12866151332855225,0.12011391669511795
1714065695737933800,9.302933837890626,-0.0029382705688476562,0.1314009428024292,0.10419701784849167
1714065695747813400,9.3128134765625,0.0724477767944336,0.17164310812950134,0.08842664211988449
1714065695757692700,9.322692626953126,0.08301544189453125,0.19708937406539917,0.11070501804351807
1714065695767572500,9.332572509765624,0.027486801147460938,0.18209019303321838,0.13732053339481354
1714065695777453000,9.342453125,-0.06712818145751953,0.14862585067749023,0.12581749260425568
1714065695787332900,9.352332763671875,-0.08247661590576172,0.1180734634399414,0.10273517668247223
1714065695797212000,9.3622119140625,-0.024582862854003906,0.12110811471939087,0.09181629121303558
1714065695807091700,9.372091796875,0.07236766815185547,0.14057105779647827,0.07871745526790619
1714065695816972500,9.38197265625,0.08294486999511719,0.18077915906906128,0.10339310765266418
1714065695826852400,9.391852294921875,0.05095958709716797,0.1778227686882019,0.11129689961671829
1714065695836731400,9.4017314453125,-0.034636497497558594,0.14195692539215088,0.11659599095582962
1714065695846611200,9.411611083984376,-0.09290409088134766,0.10916179418563843,0.10073778033256531
1714065695856492000,9.421491943359374,-0.046614646911621094,0.1028093695640564,0.08973345160484314
1714065695866371800,9.431371826171874,0.031861305236816406,0.13187581300735474,0.07420414686203003
1714065695876251000,9.4412509765625,0.08784198760986328,0.15104103088378906,0.08953821659088135
1714065695886130700,9.451130615234375,0.06755447387695312,0.15811580419540405,0.10473550111055374
1714065695896011300,9.46101123046875,-0.02302074432373047,0.13446766138076782,0.11967204511165619
1714065695905891000,9.47089111328125,-0.08854293823242188,0.10415101051330566,0.09657369554042816
1714065695915770000,9.48077001953125,-0.06351470947265625,0.07669377326965332,0.08104165643453598
1714065695925650200,9.490650146484375,0.008179664611816406,0.11325746774673462,0.06564975529909134
1714065695935530800,9.50053076171875,0.08574199676513672,0.13508719205856323,0.07406381517648697
1714065695945410600,9.51041064453125,0.08432197570800781,0.15419888496398926,0.10128999501466751
1714065695955289600,9.52028955078125,0.012293815612792969,0.13285192847251892,0.09981206059455872
1714065695965169400,9.53016943359375,-0.08678531646728516,0.10479819774627686,0.09600457549095154
1714065695975050200,9.54005029296875,-0.07120513916015625,0.07262241840362549,0.07813534140586853
1714065695984930000,9.549929931640625,-0.015862464904785156,0.09042096138000488,0.06291809678077698
1714065695994809000,9.55980908203125,0.07387065887451172,0.11498552560806274,0.055017028003931046
1714065696004689000,9.56968896484375,0.08912944793701172,0.14149412512779236,0.08478879928588867
1714065696014569500,9.579569580078125,0.02879047393798828,0.1321292221546173,0.11171021312475204
1714065696024449300,9.58944921875,-0.05172252655029297,0.11833149194717407,0.08887085318565369
1714065696034328300,9.599328369140625,-0.09321880340576172,0.0789862871170044,0.07100172340869904
1714065696044208400,9.60920849609375,-0.042217254638671875,0.0707826018333435,0.06520138680934906
1714065696054089000,9.6190888671875,0.045601844787597656,0.09802865982055664,0.057262301445007324
1714065696063968800,9.62896875,0.09664440155029297,0.12246638536453247,0.06581615656614304
1714065696073847800,9.638847900390624,0.04795265197753906,0.13225293159484863,0.08364423364400864
1714065696083727600,9.6487275390625,-0.03758716583251953,0.09961873292922974,0.08939707279205322
1714065696093608400,9.6586083984375,-0.09579849243164062,0.06764727830886841,0.07622049003839493
1714065696103488300,9.66848828125,-0.05417060852050781,0.04550743103027344,0.046909987926483154
1714065696113367300,9.6783671875,0.03855419158935547,0.08023732900619507,0.048692524433135986
1714065696123247000,9.6882470703125,0.08500385284423828,0.1120341420173645,0.043382786214351654
1714065696133127700,9.698127685546876,0.07652664184570312,0.12199452519416809,0.0710015520453453
1714065696143007500,9.708007568359376,-0.009496688842773438,0.11295530200004578,0.08886201679706573
1714065696152886500,9.717886474609376,-0.08466434478759766,0.06180912256240845,0.06875062733888626
1714065696162766300,9.727766357421874,-0.07618236541748047,0.04447495937347412,0.04662720859050751
1714065696172647200,9.737647216796875,-0.006630897521972656,0.05097168684005737,0.03887893259525299
1714065696182527000,9.74752685546875,0.0735311508178711,0.09031885862350464,0.052447542548179626
1714065696192406000,9.757406005859375,0.08643913269042969,0.12430191040039062,0.06120041757822037
1714065696202285800,9.767285888671875,0.016729354858398438,0.10580745339393616,0.07216162979602814
1714065696212166700,9.777166748046875,-0.058875083923339844,0.07361388206481934,0.08046024292707443
1714065696222046500,9.78704638671875,-0.09319877624511719,0.04666626453399658,0.05578749626874924
1714065696231925500,9.796925537109376,-0.030420303344726562,0.03912001848220825,0.022109121084213257
1714065696241805300,9.806805419921876,0.06426239013671875,0.07395637035369873,0.040784381330013275
1714065696251686000,9.816685791015624,0.1008596420288086,0.10573911666870117,0.04266907274723053
1714065696261565700,9.826565673828124,0.05680561065673828,0.099325031042099,0.07512691617012024
1714065696271444700,9.83644482421875,-0.04300880432128906,0.06724047660827637,0.07396624237298965
1714065696281324800,9.84632470703125,-0.10349178314208984,0.04039907455444336,0.06105393171310425
1714065696291205400,9.856205322265625,-0.05232048034667969,0.035192787647247314,0.043767206370830536
1714065696301085200,9.866085205078125,0.05214405059814453,0.06538617610931396,0.029122762382030487
1714065696310964200,9.875964111328125,0.08188915252685547,0.10213789343833923,0.03354915976524353
1714065696320844000,9.885843994140625,0.07110977172851562,0.09813696146011353,0.04955403506755829
1714065696330724900,9.895724853515626,-0.014817237854003906,0.08490478992462158,0.06764639168977737
1714065696340604700,9.905604736328126,-0.08518791198730469,0.05070525407791138,0.06201406568288803
1714065696350483700,9.915483642578126,-0.06963443756103516,0.031200945377349854,0.03528779000043869
1714065696360363500,9.925363525390624,0.00922393798828125,0.03791886568069458,0.030201464891433716
1714065696370244000,9.935244140625,0.08441352844238281,0.08219200372695923,0.02978953719139099
1714065696380124000,9.9451240234375,0.09243202209472656,0.09747689962387085,0.05292645841836929
1714065696390003000,9.9550029296875,0.010849952697753906,0.0794295072555542,0.0546087920665741
1714065696399882800,9.9648828125,-0.07643604278564453,0.0522649884223938,0.06567320227622986
1714065696409763600,9.974763671875,-0.08221721649169922,0.023318946361541748,0.038892753422260284
1714065696419643400,9.984643310546875,-0.01256561279296875,0.04429346323013306,0.024210773408412933
1714065696429522400,9.9945224609375,0.07711029052734375,0.0625641942024231,0.021663255989551544
1714065696439402200,10.00440234375,0.0970144271850586,0.08512002229690552,0.04270020127296448
1714065696449283000,10.014282958984374,0.04125213623046875,0.08375799655914307,0.053969793021678925
1714065696459163000,10.024162841796874,-0.063018798828125,0.05416828393936157,0.055634789168834686
1714065696469042000,10.0340419921875,-0.08785724639892578,0.015773773193359375,0.038438402116298676
1714065696478921700,10.043921630859375,-0.041656494140625,0.018040478229522705,0.021528609097003937
1714065696488802300,10.05380224609375,0.05321311950683594,0.04616677761077881,0.018913663923740387
1714065696498682000,10.06368212890625,0.09706401824951172,0.07853153347969055,0.03764224052429199
1714065696508561200,10.07356103515625,0.05778694152832031,0.08916908502578735,0.05370450019836426
1714065696518441200,10.083441162109375,-0.013800621032714844,0.05713498592376709,0.05996346473693848
1714065696528321800,10.09332177734375,-0.08183479309082031,0.018691062927246094,0.047403380274772644
1714065696538201600,10.10320166015625,-0.0616302490234375,0.018556177616119385,0.02328816056251526
1714065696548080600,10.11308056640625,0.012384414672851562,0.018422245979309082,0.02311023324728012
1714065696557960400,10.12296044921875,0.08281230926513672,0.06772881746292114,0.01339971274137497
1714065696567841300,10.13284130859375,0.08614158630371094,0.08078178763389587,0.060470595955848694
1714065696577721000,10.14272119140625,0.016434669494628906,0.06772106885910034,0.04554786533117294
1714065696587600100,10.15260009765625,-0.06858062744140625,0.03380906581878662,0.04958859086036682
1714065696597480000,10.16247998046875,-0.08861732482910156,0.009878993034362793,0.03943677246570587
1714065696607360500,10.172360595703125,-0.011792182922363281,0.02177959680557251,0.020156152546405792
1714065696617240300,10.182240234375,0.0708160400390625,0.05937677621841431,0.015196740627288818
1714065696627119400,10.192119384765626,0.08140850067138672,0.08198577165603638,0.024451687932014465
1714065696636999200,10.201999267578126,0.03296947479248047,0.08067595958709717,0.05709436535835266
1714065696646880000,10.2118798828125,-0.049976348876953125,0.03936666250228882,0.05164472758769989
1714065696656759800,10.221759765625,-0.09151077270507812,0.015344023704528809,0.027452297508716583
1714065696666638800,10.231638916015624,-0.054665565490722656,0.005846858024597168,0.02249658852815628
1714065696676518700,10.2415185546875,0.04277610778808594,0.027112603187561035,0.017504677176475525
1714065696686399500,10.2513994140625,0.1009206771850586,0.07615548372268677,0.022012785077095032
1714065696696279300,10.261279296875,0.05921745300292969,0.06317180395126343,0.04068975895643234
1714065696706158300,10.271158447265625,-0.019455909729003906,0.055112987756729126,0.049638666212558746
1714065696716038100,10.2810380859375,-0.09211063385009766,0.01422971487045288,0.04666745662689209
1714065696725918700,10.290918701171876,-0.05760955810546875,0.0023969411849975586,0.024912171065807343
1714065696735798500,10.300798583984376,0.016338348388671875,0.019011855125427246,0.012936219573020935
1714065696745677600,10.310677490234376,0.07492828369140625,0.05182915925979614,0.017520442605018616
1714065696755557400,10.320557373046874,0.09016036987304688,0.06985554099082947,0.031563900411129
1714065696765438200,10.330438232421875,0.003914833068847656,0.054740309715270996,0.038304321467876434
1714065696775318000,10.340318115234375,-0.0761861801147461,0.009272396564483643,0.03786982595920563
1714065696785197000,10.350197021484375,-0.09138774871826172,-0.004833221435546875,0.018608950078487396
1714065696795076900,10.360076904296875,-0.0027532577514648438,0.00012981891632080078,0.00908585637807846
1714065696804957400,10.36995751953125,0.0655670166015625,0.04491278529167175,0.011373668909072876
1714065696814837200,10.379837158203125,0.09037399291992188,0.06069895625114441,0.02527552843093872
1714065696824716300,10.38971630859375,0.04414081573486328,0.06445103883743286,0.039064519107341766
1714065696834596400,10.399596435546876,-0.05076122283935547,0.021057963371276855,0.05498430132865906
1714065696844477000,10.409476806640624,-0.08992958068847656,-0.005013704299926758,0.02131945639848709
1714065696854356700,10.419356689453124,-0.050757408142089844,0.0046620965003967285,0.011757589876651764
1714065696864235800,10.42923583984375,0.04426383972167969,0.021239161491394043,0.004590481519699097
1714065696874115600,10.439115478515625,0.09297370910644531,0.06343609094619751,0.02579319477081299
1714065696883996400,10.448996337890625,0.06553363800048828,0.06961691379547119,0.03499040752649307
1714065696893876200,10.458876220703125,-0.020307540893554688,0.042618513107299805,0.06052006781101227
1714065696903755300,10.46875537109375,-0.09058666229248047,0.00912487506866455,0.0384150892496109
1714065696913635000,10.478635009765625,-0.07494354248046875,0.004438519477844238,0.019026368856430054
1714065696923515600,10.488515625,0.020479202270507812,0.006894171237945557,0.0047943368554115295
1714065696933395500,10.4983955078125,0.08370780944824219,0.042267680168151855,0.011987283825874329
1714065696943274500,10.5082744140625,0.06583499908447266,0.0651618242263794,0.03071253001689911
1714065696953154300,10.518154296875,0.02000904083251953,0.05706983804702759,0.04689033329486847
1714065696963035100,10.52803515625,-0.06977653503417969,0.01627284288406372,0.03690239042043686
1714065696972915000,10.5379150390625,-0.09685707092285156,-0.007364928722381592,0.019899427890777588
1714065696982794000,10.5477939453125,-0.0269622802734375,-0.004712522029876709,0.01259661465883255
1714065696992673800,10.557673828125,0.07472515106201172,0.0332072377204895,0.007763385772705078
1714065697002554400,10.567554443359375,0.08290576934814453,0.06814220547676086,0.01714225858449936
1714065697012434400,10.577434326171876,0.03680133819580078,0.0624735951423645,0.045317210257053375
1714065697022313200,10.587313232421875,-0.060333251953125,0.02146756649017334,0.04241803288459778
1714065697032193300,10.597193359375,-0.09463310241699219,-0.006965041160583496,0.013552159070968628
1714065697042073900,10.607073974609374,-0.05773353576660156,-0.013737499713897705,0.003994673490524292
1714065697051953700,10.61695361328125,0.03740501403808594,0.017270028591156006,0.006367422640323639
1714065697061832700,10.626832763671874,0.08857536315917969,0.052350372076034546,0.001638062298297882
1714065697071712500,10.63671240234375,0.07062053680419922,0.06565967202186584,0.03242561221122742
1714065697081593300,10.64659326171875,-0.012950897216796875,0.036371588706970215,0.03197666257619858
1714065697091473200,10.65647314453125,-0.10454082489013672,-0.0017262697219848633,0.029180996119976044
1714065697101352200,10.666352294921875,-0.08160209655761719,-0.010938882827758789,0.0005357265472412109
1714065697111232000,10.67623193359375,-0.00019168853759765625,0.010606646537780762,0.007680833339691162
1714065697121112600,10.686112548828126,0.08691883087158203,0.03167426586151123,0.012352652847766876
1714065697130992400,10.695992431640626,0.0807638168334961,0.059451937675476074,0.02164875715970993
1714065697140871400,10.705871337890626,0.013502120971679688,0.05145370960235596,0.02843572199344635
1714065697150751200,10.715751220703124,-0.07382011413574219,0.006040453910827637,0.03746379166841507
1714065697160632000,10.725632080078125,-0.09847736358642578,-0.015073955059051514,0.008674241602420807
1714065697170512000,10.735511962890625,-0.019133567810058594,-0.014529883861541748,0.010969050228595734
1714065697180391000,10.745390869140625,0.05652809143066406,0.02826327085494995,0.0014608874917030334
1714065697190270700,10.755270751953125,0.08384227752685547,0.05857217311859131,0.01341778039932251
1714065697200151600,10.765151611328125,0.047133445739746094,0.0623609721660614,0.039181776344776154
1714065697210031400,10.77503125,-0.033692359924316406,0.02371114492416382,0.04332861304283142
1714065697219910100,10.78491015625,-0.09668636322021484,-0.007114589214324951,0.028566502034664154
1714065697229790200,10.794790283203126,-0.05269145965576172,-0.013883233070373535,0.004639878869056702
1714065697239670800,10.8046708984375,0.030592918395996094,0.01241976022720337,-0.004762791097164154
1714065697249550600,10.814550537109374,0.08658981323242188,0.0429912805557251,0.00493738055229187
1714065697259429600,10.8244296875,0.061611175537109375,0.06128373742103577,0.028607316315174103
1714065697269309400,10.834309326171875,-0.017095565795898438,0.039250075817108154,0.03999297320842743
1714065697279190300,10.844190185546875,-0.10390949249267578,0.0034569501876831055,0.025405339896678925
1714065697289070000,10.854070068359375,-0.08333778381347656,-0.019967198371887207,0.011066995561122894
1714065697298949000,10.86394921875,0.0028162002563476562,-0.00992494821548462,-0.010220035910606384
1714065697308829000,10.873828857421875,0.05692481994628906,0.025727391242980957,-0.0005477145314216614
1714065697318709500,10.88370947265625,0.08423233032226562,0.05607712268829346,0.013790637254714966
1714065697328589300,10.89358935546875,0.007496833801269531,0.04813504219055176,0.04425058513879776
1714065697338468400,10.90346826171875,-0.07266902923583984,0.005012392997741699,0.031827330589294434
1714065697348348200,10.91334814453125,-0.09499359130859375,-0.013730764389038086,0.01972992718219757
1714065697358229000,10.92322900390625,-0.029840469360351562,0.007861316204071045,-0.006284847855567932
1714065697368108800,10.93310888671875,0.06247901916503906,0.01496821641921997,-0.008442871272563934
1714065697377987800,10.94298779296875,0.0944051742553711,0.054915547370910645,0.020039640367031097
1714065697387867600,10.95286767578125,0.038684844970703125,0.05170270800590515,0.03168690204620361
1714065697397748500,10.96274853515625,-0.05141735076904297,0.01793736219406128,0.02888987958431244
1714065697407628300,10.972628173828125,-0.09528255462646484,-0.008082330226898193,0.023791417479515076
1714065697417507300,10.98250732421875,-0.0630807876586914,-0.012480676174163818,-0.0024098530411720276
1714065697427387100,10.99238720703125,0.027441978454589844,0.011563479900360107,-0.009222082793712616
1714065697437267700,11.002267822265624,0.06700801849365234,0.030260980129241943,0.01456502079963684
1714065697447147500,11.0121474609375,0.06118297576904297,0.05100098252296448,0.028657689690589905
1714065697457026600,11.022026611328124,-0.022233963012695312,0.038435161113739014,0.026029914617538452
1714065697466906400,11.03190625,-0.08777999877929688,0.00018405914306640625,0.025806322693824768
1714065697476787200,11.041787109375,-0.08866214752197266,-0.030249595642089844,0.008982107043266296
1714065697486667000,11.0516669921875,0.0022821426391601562,-0.0013197064399719238,-0.0028471872210502625
1714065697496546000,11.061546142578125,0.075225830078125,0.03642457723617554,-0.0003603249788284302
1714065697506425900,11.07142578125,0.08809947967529297,0.04999926686286926,0.009153902530670166
1714065697516306700,11.081306640625,0.008944511413574219,0.030389010906219482,0.03498893976211548
1714065697526186200,11.091186279296876,-0.06888675689697266,0.008870184421539307,0.03920562565326691
1714065697536065300,11.101065185546876,-0.08656501770019531,-0.014644265174865723,0.019928812980651855
1714065697545945000,11.110945068359374,-0.02861499786376953,-0.0024538040161132812,0.0009732842445373535
1714065697555826000,11.120825927734375,0.061328887939453125,0.021304428577423096,-0.0036599114537239075
1714065697565705700,11.130705810546875,0.08620452880859375,0.05161052942276001,0.012971878051757812
1714065697575584800,11.140584716796875,0.05887413024902344,0.05080699920654297,0.0363890677690506
1714065697585464600,11.150464599609375,-0.04097557067871094,0.014822661876678467,0.026457250118255615
1714065697595345400,11.160345458984375,-0.10149478912353516,-0.01820915937423706,0.023747369647026062
1714065697605225200,11.17022509765625,-0.05035877227783203,-0.015376150608062744,-0.007042780518531799
1714065697615104300,11.180104248046876,0.044655799865722656,-0.0008208155632019043,-0.009194344282150269
1714065697624984000,11.189984130859376,0.08629322052001953,0.03938955068588257,0.002940073609352112
1714065697634864600,11.19986474609375,0.07543754577636719,0.048206478357315063,0.026643291115760803
1714065697644744400,11.209744384765624,0.0035572052001953125,0.033333003520965576,0.033347100019454956
1714065697654623500,11.21962353515625,-0.09537887573242188,-0.00012475252151489258,0.0259389728307724
1714065697664503300,11.22950341796875,-0.07730293273925781,-0.030551791191101074,0.004529088735580444
1714065697674384100,11.239384033203125,-0.0030279159545898438,-0.008679389953613281,-0.0023987889289855957
1714065697684264000,11.249263916015625,0.07942771911621094,0.019891023635864258,-0.006975769996643066
1714065697694143000,11.25914306640625,0.07575035095214844,0.059637486934661865,0.019128084182739258
1714065697704022800,11.269022705078125,0.022703170776367188,0.03763115406036377,0.040207311511039734
1714065697713903600,11.278903564453126,-0.06242656707763672,0.018227040767669678,0.03268486261367798
1714065697723783200,11.288783203125,-0.0896291732788086,-0.021922707557678223,0.015870988368988037
1714065697733662500,11.298662353515626,-0.024564743041992188,-0.02138197422027588,-0.01019829511642456
1714065697743542300,11.308542236328124,0.05589580535888672,0.023879557847976685,0.001834079623222351
1714065697753422800,11.3184228515625,0.08792877197265625,0.04249054193496704,0.0067221373319625854
1714065697763302700,11.328302734375,0.04644775390625,0.05372878909111023,0.01859132945537567
1714065697773181700,11.338181640625,-0.04848766326904297,0.015340089797973633,0.027902379631996155
1714065697783061500,11.3480615234375,-0.10181808471679688,-0.03182566165924072,0.01810586452484131
1714065697792942300,11.3579423828125,-0.050683021545410156,-0.02182185649871826,-0.00552765280008316
1714065697802822100,11.367822265625,0.032566070556640625,0.011674463748931885,-0.007585689425468445
1714065697812701200,11.377701171875,0.09088420867919922,0.05167508125305176,0.006869971752166748
1714065697822581000,11.3875810546875,0.07524585723876953,0.050870418548583984,0.030388876795768738
1714065697832461600,11.397461669921874,-0.02488422393798828,0.028891414403915405,0.020675882697105408
1714065697842341400,11.40734130859375,-0.08332443237304688,-0.013910531997680664,0.022889599204063416
1714065697852220400,11.417220458984374,-0.07722091674804688,-0.025274336338043213,0.0015305429697036743
1714065697862100500,11.4271005859375,0.011178016662597656,-0.008198380470275879,-0.010055750608444214
1714065697871981000,11.43698095703125,0.07927131652832031,0.025072455406188965,0.006682649254798889
1714065697881860900,11.44686083984375,0.08501148223876953,0.04589894413948059,0.01855248212814331
1714065697891740000,11.456739990234375,-0.001155853271484375,0.04518905282020569,0.04198935627937317
1714065697901619700,11.46661962890625,-0.08588123321533203,-0.004826784133911133,0.020312011241912842
1714065697911500500,11.47650048828125,-0.09621429443359375,-0.02105027437210083,0.0037043392658233643
1714065697921380000,11.486380126953126,-0.016915321350097656,-0.02052408456802368,-0.012626580893993378
1714065697931259400,11.49625927734375,0.06812477111816406,0.015306293964385986,-0.005262143909931183
1714065697941139200,11.50613916015625,0.0811147689819336,0.04571232199668884,0.006806761026382446
1714065697951019800,11.516019775390625,0.01855945587158203,0.040417492389678955,0.028091341257095337
1714065697960899600,11.525899658203125,-0.06413936614990234,0.011668920516967773,0.03489597141742706
1714065697970778600,11.535778564453125,-0.10073089599609375,-0.016600489616394043,0.015572234988212585
1714065697980658400,11.545658447265625,-0.042545318603515625,-0.01614844799041748,-0.0033107101917266846
1714065697990539300,11.555539306640625,0.04056835174560547,0.01019221544265747,-0.007753744721412659
1714065698000419000,11.565419189453126,0.09404468536376953,0.0408022403717041,0.004356652498245239
1714065698010298000,11.575298095703126,0.06893539428710938,0.04959559440612793,0.03509879112243652
1714065698020178000,11.585177978515626,-0.03814506530761719,0.01598566770553589,0.02766147255897522
1714065698030058500,11.59505859375,-0.10106658935546875,-0.019418299198150635,0.020348086953163147
1714065698039938300,11.604938232421874,-0.04993724822998047,-0.028336048126220703,-0.0009686201810836792
1714065698049817300,11.6148173828125,0.02153491973876953,0.0006806850433349609,0.0014931261539459229
1714065698059697400,11.624697509765625,0.09180927276611328,0.038511842489242554,-0.0007945448160171509
1714065698069578000,11.634577880859375,0.0761556625366211,0.03792509436607361,0.01813758909702301
1714065698079457800,11.644457763671875,-0.009861946105957031,0.03734812140464783,0.03910839557647705
1714065698089336800,11.6543369140625,-0.0920877456665039,0.001586616039276123,0.02677091956138611
1714065698099216600,11.664216552734375,-0.07641983032226562,-0.026514828205108643,0.0005199909210205078
1714065698109097500,11.674097412109376,0.000194549560546875,-0.011772334575653076,-0.00398688018321991
1714065698118977000,11.68397705078125,0.07317256927490234,0.028501838445663452,-0.017835423350334167
1714065698128856300,11.693856201171876,0.0837259292602539,0.05162540078163147,0.02492879331111908
1714065698138736000,11.703736083984374,0.014059066772460938,0.03198802471160889,0.02943192422389984
1714065698148616700,11.71361669921875,-0.06621074676513672,-0.0036841630935668945,0.01972876489162445
1714065698158496500,11.72349658203125,-0.08864879608154297,-0.02946227788925171,0.01019337773323059
1714065698168375600,11.73337548828125,-0.025956153869628906,-0.01467067003250122,0.0006981045007705688
1714065698178255400,11.74325537109375,0.059235572814941406,0.0163537859916687,0.0007778704166412354
1714065698188136200,11.75313623046875,0.09121417999267578,0.03744438290596008,0.0055647194385528564
1714065698198016000,11.76301611328125,0.05202770233154297,0.03452271223068237,0.03381375968456268
1714065698207895000,11.77289501953125,-0.04535961151123047,0.010461986064910889,0.0286332368850708
1714065698217774800,11.78277490234375,-0.09875011444091797,-0.013197720050811768,0.016595259308815002
1714065698227655400,11.792655517578124,-0.052367210388183594,-0.029281675815582275,-0.014075689017772675
1714065698237535200,11.80253515625,0.03797149658203125,0.013757288455963135,-0.013630934059619904
1714065698247414300,11.812414306640624,0.08913326263427734,0.0371265709400177,0.0031670331954956055
1714065698257294300,11.82229443359375,0.06881999969482422,0.043744295835494995,0.02215196192264557
1714065698267175000,11.8321748046875,-0.017076492309570312,0.019528359174728394,0.02669532597064972
1714065698277054700,11.8420546875,-0.10154342651367188,-0.006636679172515869,0.026460647583007812
1714065698286933800,11.851933837890625,-0.08571910858154297,-0.03224682807922363,0.000333636999130249
1714065698296813600,11.8618134765625,0.014592170715332031,-0.012700498104095459,-0.0018159449100494385
1714065698306694400,11.8716943359375,0.07791900634765625,0.025353670120239258,-0.0016942620277404785
1714065698316574000,11.881573974609376,0.08369636535644531,0.05582982301712036,0.01973193883895874
1714065698326453200,11.891453369140624,0.014037132263183594,0.03388696908950806,0.036092668771743774
1714065698336333000,11.9013330078125,-0.07329559326171875,0.0005388855934143066,0.019221976399421692
1714065698346213600,11.911213623046875,-0.08619213104248047,-0.034607648849487305,0.007340848445892334
1714065698356093400,11.921093505859375,-0.021185874938964844,-0.017376065254211426,-0.009050697088241577
1714065698365972500,11.930972412109375,0.07334232330322266,0.016047656536102295,-0.011043891310691833
1714065698375852300,11.940852294921875,0.08153724670410156,0.03702458739280701,0.012892350554466248
1714065698385733000,11.950733154296875,0.049574851989746094,0.04117250442504883,0.026894092559814453
1714065698395613000,11.960613037109376,-0.04777336120605469,0.016999423503875732,0.03135839104652405
1714065698405492000,11.970491943359375,-0.09640884399414062,-0.03019237518310547,0.021629169583320618
1714065698415371800,11.980371826171876,-0.04771137237548828,-0.024805426597595215,-0.009125679731369019
1714065698425252400,11.99025244140625,0.04961204528808594,0.006386399269104004,-0.0064153000712394714
1714065698435132200,12.000132080078124,0.09822273254394531,0.03694114089012146,0.010381191968917847
1714065698445011200,12.01001123046875,0.05421161651611328,0.04815155267715454,0.026891663670539856
1714065698454891300,12.019891357421875,-0.010255813598632812,0.019155293703079224,0.029007911682128906
1714065698464771800,12.029771728515625,-0.08541297912597656,-0.011593103408813477,0.014609545469284058
1714065698474651600,12.039651611328125,-0.06514835357666016,-0.03947484493255615,0.002805262804031372
1714065698484530700,12.04953076171875,0.008924484252929688,-0.0033301115036010742,-0.01128135621547699
1714065698494410500,12.059410400390625,0.08882427215576172,0.022796928882598877,-0.006174750626087189
1714065698504291300,12.069291259765626,0.07792949676513672,0.04601556062698364,0.02697835862636566
1714065698514171000,12.0791708984375,0.022490501403808594,0.03365302085876465,0.038391128182411194
1714065698524050200,12.08905029296875,-0.08617115020751953,-0.011463701725006104,0.026184439659118652
1714065698533930000,12.098929931640624,-0.08237457275390625,-0.027576565742492676,0.009478867053985596
1714065698543810600,12.108810546875,-0.012717247009277344,-0.02211439609527588,-0.014010868966579437
1714065698553690400,12.1186904296875,0.07225322723388672,0.01845085620880127,-0.011331737041473389
1714065698563569400,12.1285693359375,0.0993051528930664,0.04186069965362549,0.017317697405815125
1714065698573449200,12.13844921875,0.02702617645263672,0.04357382655143738,0.031245693564414978
1714065698583330000,12.148330078125,-0.06523704528808594,-0.0018255114555358887,0.03328940272331238
1714065698593209900,12.1582099609375,-0.09710693359375,-0.02763468027114868,0.013992443680763245
1714065698603089000,12.1680888671875,-0.031917572021484375,-0.015227735042572021,-0.019108116626739502
1714065698612968700,12.17796875,0.053371429443359375,0.004034996032714844,-0.0069272443652153015
1714065698622849300,12.187849365234374,0.1019277572631836,0.0441645085811615,0.016940414905548096
1714065698632729000,12.19772900390625,0.06020641326904297,0.050547629594802856,0.023930922150611877
1714065698642608000,12.207608154296874,-0.027901649475097656,0.01680147647857666,0.03315301239490509
1714065698652488000,12.217488037109375,-0.09334754943847656,-0.009200811386108398,0.016206443309783936
1714065698662368800,12.22736865234375,-0.07059574127197266,-0.02064305543899536,-0.007514201104640961
1714065698672248600,12.23724853515625,0.029462814331054688,-0.003644287586212158,-0.002470359206199646
1714065698682127600,12.247127685546875,0.085479736328125,0.03425896167755127,0.004843607544898987
1714065698692007400,12.25700732421875,0.06287479400634766,0.04563438892364502,0.02380669116973877
1714065698701888300,12.26688818359375,-0.008792877197265625,0.01915314793586731,0.028328582644462585
1714065698711767800,12.276767822265626,-0.09109878540039062,-0.012783408164978027,0.02112293243408203
1714065698721646800,12.286646728515626,-0.1320819854736328,-0.22678440809249878,0.09413209557533264
1714065698731526700,12.296526611328124,0.19017791748046875,-0.13095253705978394,0.08569575846195221
