time,seconds_elapsed,z,y,x
1714064645697985000,0.271985107421875,0.008210182189941406,0.022726625204086304,-0.01623256504535675
1714064645707864300,0.2818642578125,0.007182121276855469,0.022030651569366455,-0.0035435855388641357
1714064645717744400,0.291744384765625,0.012766838073730469,0.015375405550003052,0.00341951847076416
1714064645727625200,0.301625244140625,0.0028705596923828125,0.003115922212600708,-0.001040726900100708
1714064645737505300,0.31150537109375,0.00043487548828125,0.0008173286914825439,-0.013811811804771423
1714064645747384600,0.321384521484375,0.024537086486816406,-0.0013929307460784912,-0.010271623730659485
1714064645757264600,0.3312646484375,0.011598587036132812,-0.012280464172363281,-0.018232300877571106
1714064645767145700,0.341145751953125,0.012995719909667969,-0.0023463070392608643,-0.014509662985801697
1714064645777025800,0.35102587890625,0.018831253051757812,0.002332538366317749,-0.006640627980232239
1714064645786905000,0.360905029296875,0.00867462158203125,0.020196139812469482,-0.0015374869108200073
1714064645796785200,0.37078515625,0.00591278076171875,0.003402143716812134,0.005512714385986328
1714064645806666000,0.380666015625,0.0010614395141601562,0.010050475597381592,0.0030326247215270996
1714064645816546000,0.390546142578125,0.0032720565795898438,0.0005033910274505615,0.01668284833431244
1714064645826425300,0.40042529296875,0.012205123901367188,-0.0017439723014831543,-0.002262488007545471
1714064645836305400,0.410305419921875,0.018468856811523438,0.0007880926132202148,-0.011187121272087097
1714064645846186200,0.420186279296875,0.0016374588012695312,0.0033214986324310303,-0.005905210971832275
1714064645856066600,0.430066650390625,0.029048919677734375,-0.010393291711807251,-0.021590113639831543
1714064645865945900,0.43994580078125,0.00030517578125,0.0038607418537139893,0.00016224384307861328
1714064645875826000,0.449825927734375,-0.02038860321044922,0.0016914308071136475,0.00736624002456665
1714064645885706800,0.459706787109375,0.026433944702148438,0.006283283233642578,0.0003773719072341919
1714064645895586800,0.4695869140625,0.000095367431640625,0.02454918622970581,0.002757817506790161
1714064645905466000,0.479466064453125,-0.02298450469970703,0.02176433801651001,0.012094780802726746
1714064645915346200,0.48934619140625,0.026353836059570312,0.0026927590370178223,-0.006725415587425232
1714064645925227000,0.49922705078125,0.02084636688232422,-0.015855997800827026,0.0005310028791427612
1714064645935107300,0.509107421875,-0.005309104919433594,-0.015172809362411499,0.0007195621728897095
1714064645944986600,0.518986572265625,0.020366668701171875,-0.01696246862411499,-0.0083741694688797
1714064645954866700,0.52886669921875,-0.003467559814453125,0.018430352210998535,-0.010235831141471863
1714064645964747500,0.53874755859375,0.0012874603271484375,0.0181770920753479,0.006537348031997681
1714064645974627600,0.548627685546875,0.019858360290527344,0.001550227403640747,-0.00042003393173217773
1714064645984507000,0.5585068359375,0.014654159545898438,0.010990023612976074,0.0184190571308136
1714064645994387000,0.568386962890625,-0.009037971496582031,0.0154075026512146,0.018128082156181335
1714064646004268000,0.57826806640625,0.014513015747070312,0.001186072826385498,-0.0007946640253067017
1714064646014148000,0.588148193359375,0.011809349060058594,0.008324474096298218,0.004094347357749939
1714064646024027400,0.59802734375,-0.0024890899658203125,-0.015053093433380127,0.0018650144338607788
1714064646033907500,0.607907470703125,0.009249687194824219,-0.021519958972930908,0.00681556761264801
1714064646043788300,0.617788330078125,0.013706207275390625,-0.0021375715732574463,-0.007161751389503479
1714064646053668400,0.62766845703125,0.004034996032714844,0.007439136505126953,0.0025661587715148926
1714064646063547600,0.637547607421875,0.003945350646972656,0.019141942262649536,0.0073949843645095825
1714064646073427700,0.647427734375,0.010882377624511719,0.01654917001724243,0.009779408574104309
1714064646083308800,0.657308837890625,-0.008089065551757812,0.016363024711608887,0.007432788610458374
1714064646093188900,0.66718896484375,0.013174057006835938,-0.014272540807723999,0.009825870394706726
1714064646103068200,0.677068115234375,0.012903213500976562,-0.006770968437194824,0.00736352801322937
1714064646112948200,0.6869482421875,0.0032625198364257812,-0.008804172277450562,0.0049585700035095215
1714064646122829000,0.6968291015625,0.0031995773315429688,0.0009307265281677246,-0.016048163175582886
1714064646132709400,0.70670947265625,0.0007905960083007812,0.0010864734649658203,-0.013177886605262756
1714064646142588400,0.71658837890625,0.0007772445678710938,0.012979894876480103,-0.0009756535291671753
1714064646152468700,0.72646875,0.0031137466430664062,0.012909114360809326,-0.0007486343383789062
1714064646162349600,0.736349609375,-0.0016422271728515625,0.019893527030944824,0.008873000741004944
1714064646172229600,0.746229736328125,-0.003962516784667969,0.015004903078079224,0.01844070851802826
1714064646182109000,0.75610888671875,0.00786590576171875,0.005505859851837158,0.013617515563964844
1714064646191989000,0.765989013671875,0.0030260086059570312,-0.013233155012130737,0.011235401034355164
1714064646201870000,0.7758701171875,0.017088890075683594,-0.008243054151535034,0.0018393993377685547
1714064646211750100,0.785750244140625,0.0003261566162109375,-0.010282367467880249,-0.009750336408615112
1714064646221629400,0.79562939453125,0.009736061096191406,0.0017163455486297607,-0.004670366644859314
1714064646231509500,0.805509521484375,0.0072174072265625,0.011160880327224731,0.00032494962215423584
1714064646241390300,0.815390380859375,0.0023899078369140625,0.01821199059486389,0.0030010491609573364
1714064646251270400,0.8252705078125,0.009408950805664062,0.013256430625915527,0.003278300166130066
1714064646261149700,0.835149658203125,0.0045452117919921875,0.02027261257171631,0.017557933926582336
1714064646271030000,0.845030029296875,-0.0025892257690429688,0.003629922866821289,0.015002012252807617
1714064646280910800,0.854910888671875,-0.00254058837890625,-0.005554646253585815,0.005544319748878479
1714064646290791000,0.864791015625,-0.0024967193603515625,-0.0005791783332824707,0.003306835889816284
1714064646300670200,0.874670166015625,-0.000102996826171875,-0.016992539167404175,0.005814999341964722
1714064646310550300,0.88455029296875,0.006962776184082031,-0.007120192050933838,-0.010556191205978394
1714064646320431400,0.894431396484375,-0.011983871459960938,0.012004464864730835,-0.005466729402542114
1714064646330311400,0.9043115234375,0.007050514221191406,0.004916340112686157,0.0066044628620147705
1714064646340190700,0.914190673828125,0.00693511962890625,0.021488279104232788,0.011411875486373901
1714064646350070800,0.92407080078125,0.004467964172363281,0.009533673524856567,0.00907658040523529
1714064646359951600,0.93395166015625,-0.0026674270629882812,0.004840970039367676,0.016197025775909424
1714064646369831700,0.943831787109375,-0.00026702880859375,0.009643197059631348,-0.0050515830516815186
1714064646379711000,0.9537109375,-0.00026416778564453125,-0.01635730266571045,-0.0024040937423706055
1714064646389591300,0.96359130859375,0.013866424560546875,-0.011322081089019775,0.007139682769775391
1714064646399472000,0.97347216796875,0.008928298950195312,0.0031663477420806885,0.002521410584449768
1714064646409352200,0.983352294921875,0.004069328308105469,0.0008157193660736084,0.007396891713142395
1714064646419231500,0.9932314453125,0.01342010498046875,0.00568506121635437,-0.0019340813159942627
1714064646429111600,1.003111572265625,0.008485794067382812,0.024480223655700684,0.003015667200088501
1714064646438992600,1.01299267578125,-0.00577545166015625,0.01247367262840271,0.00305233895778656
1714064646448872700,1.022872802734375,-0.008031845092773438,0.021857112646102905,0.012627393007278442
1714064646458752000,1.032751953125,0.013295173645019531,0.00518798828125,0.012507855892181396
1714064646468632000,1.042632080078125,0.010721206665039062,-0.00649493932723999,-0.0016166716814041138
1714064646478513000,1.052512939453125,0.0011272430419921875,-0.010920494794845581,0.0009736120700836182
1714064646488393000,1.06239306640625,0.008175849914550781,-0.0035013556480407715,-0.0013058781623840332
1714064646498272300,1.072272216796875,0.0009794235229492188,0.00850251317024231,-0.005783393979072571
1714064646508152300,1.08215234375,-0.010806083679199219,0.010889530181884766,-0.0031236857175827026
1714064646518033400,1.092033447265625,0.019980430603027344,0.017943084239959717,0.004196077585220337
1714064646527913500,1.10191357421875,0.003170013427734375,0.022524893283843994,0.016102254390716553
1714064646537792800,1.111792724609375,0.005473136901855469,0.012907207012176514,0.016043007373809814
1714064646547672800,1.1216728515625,0.0030298233032226562,0.008158236742019653,0.008922189474105835
1714064646557554000,1.131553955078125,0.012401580810546875,0.008196830749511719,0.013572841882705688
1714064646567434000,1.14143408203125,-0.004282951354980469,-0.008244574069976807,-0.005277812480926514
1714064646577313300,1.151313232421875,0.005206108093261719,-0.0008700191974639893,-0.014397531747817993
1714064646587193300,1.161193359375,0.0051212310791015625,0.008735835552215576,-0.004531636834144592
1714064646597074400,1.171074462890625,-0.009090423583984375,0.013354986906051636,0.014586642384529114
1714064646606954500,1.18095458984375,0.012250900268554688,0.020369529724121094,0.005135864019393921
1714064646616833800,1.190833740234375,0.004984855651855469,0.022558778524398804,0.009967789053916931
1714064646626713900,1.2007138671875,-0.00215911865234375,0.00587800145149231,0.012364998459815979
1714064646636594700,1.2105947265625,0.004940986633300781,0.00830879807472229,0.007659703493118286
1714064646646474800,1.220474853515625,-0.006909370422363281,-0.005780309438705444,0.012449577450752258
1714064646656354000,1.23035400390625,0.007332801818847656,0.003907382488250732,0.007742822170257568
1714064646666234000,1.240234130859375,0.0025033950805664062,-0.005399972200393677,-0.001593858003616333
1714064646676115200,1.250115234375,0.004817008972167969,0.004281401634216309,0.0033502578735351562
1714064646685995300,1.259995361328125,-0.0023241043090820312,0.02321818470954895,0.0011493861675262451
1714064646695874600,1.26987451171875,0.011844635009765625,0.02771204710006714,0.008279740810394287
1714064646705754600,1.279754638671875,0.006943702697753906,0.02271425724029541,0.0199996680021286
1714064646715635700,1.2896357421875,0.011538505554199219,0.015447676181793213,0.01752130687236786
1714064646725515800,1.299515869140625,-0.005135536193847656,0.01995706558227539,0.00802566111087799
1714064646735395000,1.30939501953125,0.00201416015625,0.0009654462337493896,0.005746826529502869
1714064646745275100,1.319275146484375,0.0019855499267578125,0.010540693998336792,0.017512977123260498
1714064646755156000,1.329156005859375,0.0066661834716796875,-0.005941867828369141,0.0031828731298446655
1714064646765036000,1.3390361328125,0.006556510925292969,-0.0033140480518341064,0.0033389776945114136
1714064646774915600,1.34891552734375,0.0088043212890625,0.003978341817855835,0.005846679210662842
1714064646784795600,1.358795654296875,0.011015892028808594,0.0252743661403656,0.0034859925508499146
1714064646794676500,1.368676513671875,0.010831832885742188,0.013138532638549805,0.010581448674201965
1714064646804556500,1.378556640625,-0.0011196136474609375,0.012975901365280151,0.015204444527626038
1714064646814435800,1.388435791015625,0.005959510803222656,0.005753427743911743,0.01516018807888031
1714064646824316200,1.398316162109375,-0.00826263427734375,-0.008293062448501587,0.012762472033500671
1714064646834197000,1.408197021484375,0.008356094360351562,-0.00327184796333313,0.010404765605926514
1714064646844077000,1.4180771484375,0.010568618774414062,-0.0031609535217285156,-0.0036846548318862915
1714064646853956400,1.427956298828125,0.008040428161621094,0.0017746984958648682,-0.0010598748922348022
1714064646863836400,1.43783642578125,-0.0015058517456054688,0.004273921251296997,0.0014029443264007568
1714064646873717500,1.447717529296875,0.007938385009765625,0.016148269176483154,0.011005550622940063
1714064646883597600,1.45759765625,0.007807731628417969,0.011343240737915039,0.0016105026006698608
1714064646893476900,1.467476806640625,0.010033607482910156,0.01838928461074829,0.015914008021354675
1714064646903357000,1.47735693359375,-0.0019063949584960938,0.015785008668899536,0.015857979655265808
1714064646913238000,1.487238037109375,0.009901046752929688,0.008633941411972046,0.022747233510017395
1714064646923118000,1.4971181640625,0.002674102783203125,-0.007814735174179077,0.0037437230348587036
1714064646932997400,1.506997314453125,0.00027561187744140625,-0.00998234748840332,-0.0009361058473587036
1714064646942877400,1.51687744140625,0.016750335693359375,-0.0050511956214904785,0.003878846764564514
1714064646952758300,1.52675830078125,0.0023469924926757812,0.011686980724334717,0.0016692131757736206
1714064646962638300,1.536638427734375,0.007021903991699219,0.006958454847335815,0.004086554050445557
1714064646972517600,1.546517578125,-0.00016021728515625,0.02573239803314209,0.006581827998161316
1714064646982398000,1.55639794921875,0.0021982192993164062,0.032540708780288696,0.009035542607307434
1714064646992278800,1.56627880859375,0.009226799011230469,0.010985225439071655,0.01615677773952484
1714064647002158800,1.576158935546875,0.016137123107910156,0.008622556924819946,0.02080509066581726
1714064647012038100,1.5860380859375,0.011164665222167969,0.0015908479690551758,0.013486713171005249
1714064647021918200,1.595918212890625,0.008626937866210938,-0.005323618650436401,-0.0006540268659591675
1714064647031799300,1.60579931640625,0.010838508605957031,-0.005060255527496338,-0.0004338771104812622
1714064647041679400,1.615679443359375,0.010660171508789062,0.0022613108158111572,0.0021367818117141724
1714064647051558700,1.62555859375,-0.0036401748657226562,0.00946083664894104,0.009372979402542114
1714064647061438700,1.635438720703125,0.012902259826660156,0.02124875783920288,0.009425997734069824
1714064647071319800,1.64531982421875,0.010334014892578125,0.025777667760849,0.018894925713539124
1714064647081199900,1.655199951171875,-0.0016069412231445312,0.011397480964660645,0.018789231777191162
1714064647091079200,1.6650791015625,-0.003931999206542969,0.004319578409194946,0.011622712016105652
1714064647100959200,1.674959228515625,-0.0015106201171875,-0.007348775863647461,0.013992413878440857
1714064647110840300,1.68484033203125,0.007933616638183594,-0.011760056018829346,-0.0025109052658081055
1714064647120720400,1.694720458984375,0.01957416534423828,-0.0019747018814086914,0.00009033083915710449
1714064647130599700,1.704599609375,0.005127906799316406,0.007647573947906494,0.00488416850566864
1714064647140479700,1.714479736328125,-0.0067272186279296875,0.007694751024246216,0.009720414876937866
1714064647150360800,1.72436083984375,0.005161285400390625,0.0195121169090271,0.007295191287994385
1714064647160241000,1.734240966796875,0.014489173889160156,0.012180715799331665,0.007382839918136597
1714064647170120200,1.7441201171875,0.0024785995483398438,0.009798169136047363,0.016885817050933838
1714064647180000300,1.754000244140625,-0.004620552062988281,-0.001961439847946167,0.02611216902732849
1714064647189881000,1.763881103515625,0.007231712341308594,0.0029543042182922363,0.0022259801626205444
1714064647199761200,1.77376123046875,0.0047550201416015625,-0.004101157188415527,0.016523316502571106
1714064647209640400,1.783640380859375,0.0070343017578125,-0.001503974199295044,0.018693089485168457
1714064647219520800,1.793520751953125,0.018688201904296875,0.019765228033065796,0.013764142990112305
1714064647229401600,1.803401611328125,0.011316299438476562,0.010193705558776855,0.0066814124584198
1714064647239281700,1.81328173828125,0.004067420959472656,0.014906853437423706,0.006779327988624573
1714064647249161000,1.823160888671875,0.013418197631835938,0.019541442394256592,0.016292378306388855
1714064647259041300,1.833041259765625,0.006134033203125,0.009973645210266113,0.02093850076198578
1714064647268922000,1.842922119140625,-0.003387451171875,0.014572203159332275,0.018444597721099854
1714064647278802200,1.85280224609375,0.022566795349121094,-0.0019753873348236084,0.01128387451171875
1714064647288681500,1.862681396484375,0.010420799255371094,-0.004240274429321289,0.01589520275592804
1714064647298561500,1.8725615234375,0.0031862258911132812,-0.011057496070861816,-0.0006398111581802368
1714064647308442600,1.882442626953125,0.0172576904296875,-0.008462578058242798,0.0018160492181777954
1714064647318322700,1.89232275390625,0.0028467178344726562,0.00597834587097168,0.001995071768760681
1714064647328202000,1.902201904296875,0.019275665283203125,0.020060241222381592,0.01865045726299286
1714064647338082000,1.91208203125,0.0095367431640625,0.026844918727874756,0.020903125405311584
1714064647347963100,1.921963134765625,0.009379386901855469,0.014801234006881714,0.013701453804969788
1714064647357843200,1.93184326171875,0.013932228088378906,0.010020852088928223,0.020744994282722473
1714064647367722500,1.941722412109375,0.0066394805908203125,-0.0017424523830413818,0.018254339694976807
1714064647377602600,1.9516025390625,0.004179954528808594,-0.01566392183303833,0.008624330163002014
1714064647387483600,1.961483642578125,-0.0005960464477539062,-0.015228122472763062,-0.0007268637418746948
1714064647397363700,1.97136376953125,0.01824951171875,-0.0006744265556335449,0.004202947020530701
1714064647407243000,1.981242919921875,0.013241767883300781,0.001863628625869751,0.013636648654937744
1714064647417123000,1.991123046875,0.010671615600585938,0.009067803621292114,0.006433755159378052
1714064647427004200,2.001004150390625,0.0222625732421875,0.03251504898071289,0.018306851387023926
1714064647436884200,2.01088427734375,0.02189159393310547,0.01555013656616211,0.015738576650619507
1714064647446763500,2.020763427734375,0.00269317626953125,0.020055770874023438,0.015567287802696228
1714064647456643600,2.0306435546875,0.00971221923828125,0.019896239042282104,0.022579774260520935
1714064647466524700,2.040524658203125,0.018968582153320312,-0.008510977029800415,0.01535022258758545
1714064647476404700,2.05040478515625,0.009238243103027344,-0.0034859776496887207,0.0035327523946762085
1714064647486284000,2.060283935546875,0.013791084289550781,0.010753720998764038,-0.0033793598413467407
1714064647496164000,2.0701640625,0.013559341430664062,-0.0011400878429412842,0.0063031017780303955
1714064647506045000,2.080044921875,0.013331413269042969,0.017768889665603638,0.00876164436340332
1714064647515925000,2.089925048828125,0.01546478271484375,0.027064263820648193,0.015887588262557983
1714064647525804500,2.099804443359375,0.01991748809814453,0.017369091510772705,0.015828117728233337
1714064647535684600,2.1096845703125,0.0007572174072265625,0.02431696653366089,0.02036374807357788
1714064647545565700,2.119565673828125,0.010162353515625,-0.004163920879364014,0.008462771773338318
1714064647555445500,2.129445556640625,0.014703750610351562,-0.0015655457973480225,0.020302101969718933
1714064647565325000,2.139324951171875,0.005043983459472656,-0.008427292108535767,0.008402124047279358
1714064647575205000,2.149205078125,0.014374732971191406,-0.0011699199676513672,-0.0009493380784988403
1714064647585086000,2.1590859375,0.02355194091796875,0.005968630313873291,-0.0031966418027877808
1714064647594966000,2.168966064453125,0.020807266235351562,0.0083981454372406,0.008837014436721802
1714064647604845300,2.17884521484375,0.0181121826171875,0.022676438093185425,0.001836538314819336
1714064647614725600,2.1887255859375,0.020163536071777344,0.02470913529396057,0.013786330819129944
1714064647624606500,2.1986064453125,0.005703926086425781,0.015055328607559204,0.020828604698181152
1714064647634486500,2.208486572265625,0.012673377990722656,0.0008540451526641846,0.01362830400466919
1714064647644365800,2.21836572265625,0.007758140563964844,-0.001341700553894043,0.018196582794189453
1714064647654246100,2.22824609375,0.012339591979980469,-0.008209198713302612,0.00868193805217743
1714064647664127000,2.238126953125,0.03096771240234375,-0.008013814687728882,-0.0007844418287277222
1714064647674007000,2.248007080078125,0.021035194396972656,-0.0007612109184265137,0.0016739070415496826
1714064647683886300,2.25788623046875,0.013623237609863281,0.013549357652664185,0.004205599427223206
1714064647693766400,2.267766357421875,0.02045726776123047,0.025148898363113403,0.01611192524433136
1714064647703647500,2.2776474609375,0.024827003479003906,0.02725878357887268,0.013698682188987732
1714064647713527600,2.287527587890625,0.015000343322753906,0.022268831729888916,0.025328412652015686
1714064647723406800,2.29740673828125,0.02416706085205078,0.01959991455078125,0.017934739589691162
1714064647733287000,2.307286865234375,0.0049343109130859375,0.000614553689956665,0.01301853358745575
1714064647743168000,2.31716796875,0.014270782470703125,-0.00863763689994812,0.010656878352165222
1714064647753048000,2.327048095703125,0.02816009521484375,0.005806386470794678,0.0012719780206680298
1714064647762927400,2.33692724609375,0.015920639038085938,0.0034118592739105225,-0.0010123252868652344
1714064647772807400,2.346807373046875,0.001529693603515625,0.012828230857849121,0.003804042935371399
1714064647782688500,2.3566884765625,0.02975177764892578,0.012670904397964478,0.008658573031425476
1714064647792568600,2.366568603515625,0.015133857727050781,0.019697219133377075,0.015786394476890564
1714064647802448000,2.37644775390625,0.0031147003173828125,0.01954379677772522,0.008551806211471558
1714064647812328000,2.386327880859375,0.012479782104492188,0.02398088574409485,0.02262154221534729
1714064647822209000,2.396208984375,0.009922027587890625,0.014339298009872437,0.015273049473762512
1714064647832089000,2.406089111328125,0.016821861267089844,-0.01632934808731079,0.005811244249343872
1714064647841968400,2.415968505859375,0.028313636779785156,0.002951294183731079,0.008278131484985352
1714064647851848400,2.425848388671875,0.027843475341796875,0.005429118871688843,0.0036372989416122437
1714064647861729500,2.4357294921875,0.01090240478515625,0.0031572282314300537,0.010844841599464417
1714064647871609600,2.445609619140625,0.013077735900878906,0.01034003496170044,0.003807052969932556
1714064647881489000,2.455489013671875,0.03169441223144531,0.0221136212348938,0.013369947671890259
1714064647891369000,2.465368896484375,0.012335777282714844,0.014857381582260132,0.020419299602508545
1714064647901249800,2.475249755859375,0.007422447204589844,0.017138928174972534,0.02735118567943573
1714064647911130000,2.485130126953125,0.014367103576660156,0.007611453533172607,0.01756967604160309
1714064647921009200,2.495009033203125,0.009424209594726562,0.0005969405174255371,-0.0014655739068984985
1714064647930889500,2.504889404296875,0.0045604705810546875,-0.003946483135223389,-0.0012315362691879272
1714064647940770300,2.514770263671875,0.020965576171875,0.00571104884147644,0.008415400981903076
1714064647950650400,2.524650390625,0.020618438720703125,0.008145034313201904,0.00613054633140564
1714064647960529700,2.53452978515625,0.013214111328125,0.02701777219772339,0.010946378111839294
1714064647970410000,2.544409912109375,0.0224151611328125,0.01967984437942505,0.02027188241481781
1714064647980290800,2.554290771484375,0.012627601623535156,0.017174750566482544,0.008376702666282654
1714064647990171000,2.5641708984375,0.007710456848144531,0.019417673349380493,0.024926111102104187
1714064648000050200,2.57405029296875,0.014642715454101562,0.005025386810302734,0.00824090838432312
1714064648009930200,2.58393017578125,0.007334709167480469,-0.011481255292892456,-0.0011035799980163574
1714064648019811300,2.593811279296875,0.018988609313964844,0.0006561279296875,0.001360177993774414
1714064648029691400,2.60369140625,0.02102375030517578,-0.0016525089740753174,0.0015471577644348145
1714064648039570700,2.61357080078125,0.01832103729248047,0.015029370784759521,0.0017310231924057007
1714064648049451000,2.623450927734375,0.015666961669921875,0.003182917833328247,0.013564318418502808
1714064648059331800,2.633331787109375,0.01540374755859375,0.024374157190322876,0.00883956253528595
1714064648069212000,2.6432119140625,0.01043701171875,0.02402442693710327,0.013610303401947021
1714064648079091200,2.65309130859375,0.0031995773315429688,0.004846930503845215,0.015828847885131836
1714064648088971300,2.66297119140625,0.012568473815917969,0.014357924461364746,0.013302013278007507
1714064648098852400,2.672852294921875,0.021775245666503906,0.00004789233207702637,0.010813295841217041
1714064648108732400,2.682732421875,0.021409988403320312,-0.011667430400848389,0.008488580584526062
1714064648118611700,2.69261181640625,0.02576160430908203,0.007417142391204834,0.006084084510803223
1714064648128491800,2.70249169921875,0.008858680725097656,0.01923951506614685,-0.0033429116010665894
1714064648138372900,2.712372802734375,0.004000663757324219,0.016619116067886353,0.0063353031873703
1714064648148253000,2.7222529296875,0.025119781494140625,0.011690229177474976,0.018210425972938538
1714064648158132200,2.73213232421875,0.019994735717773438,0.01402464509010315,0.020470842719078064
1714064648168012300,2.74201220703125,0.010247230529785156,0.0069033801555633545,0.015631020069122314
1714064648177893400,2.751893310546875,0.007720947265625,0.016261637210845947,0.017934441566467285
1714064648187773400,2.7617734375,0.02172565460205078,0.002159029245376587,0.01066415011882782
1714064648197652700,2.77165283203125,0.014303207397460938,-0.002410292625427246,0.0059877485036849976
1714064648207532800,2.78153271484375,0.014064788818359375,-0.004667788743972778,-0.0010834187269210815
1714064648217413600,2.79141357421875,0.016188621520996094,0.004999816417694092,-0.0009781718254089355
1714064648227293700,2.801293701171875,0.008861541748046875,0.014508336782455444,0.013254523277282715
1714064648237173200,2.81117333984375,0.025201797485351562,0.016914337873458862,0.010770618915557861
1714064648247053300,2.82105322265625,0.02949237823486328,0.00974494218826294,0.01080089807510376
1714064648256934100,2.83093408203125,0.024290084838867188,0.019053727388381958,0.010826647281646729
1714064648266814200,2.840814208984375,0.007405281066894531,0.004665464162826538,0.01544182002544403
1714064648276693500,2.850693603515625,0.014344215393066406,-0.00006416440010070801,0.010567262768745422
1714064648286573600,2.860573486328125,0.007044792175292969,-0.009304791688919067,0.012955129146575928
1714064648296454700,2.87045458984375,0.016345977783203125,-0.0019119977951049805,-0.0011761337518692017
1714064648306334700,2.880334716796875,0.01607799530029297,0.0006470978260040283,0.0036390572786331177
1714064648316214000,2.890214111328125,0.011107444763183594,0.0008114278316497803,0.003669634461402893
1714064648326094000,2.900093994140625,0.017984390258789062,0.01968798041343689,0.010762318968772888
1714064648335975200,2.90997509765625,0.01297760009765625,0.02424129843711853,0.027268141508102417
1714064648345855200,2.919855224609375,0.008055686950683594,0.019303977489471436,0.022315114736557007
1714064648355734500,2.929734619140625,0.007923126220703125,0.009740591049194336,0.022153005003929138
1714064648365614600,2.939614501953125,0.021917343139648438,0.007399201393127441,0.017285212874412537
1714064648375495700,2.94949560546875,0.009785652160644531,-0.011382579803466797,0.012380003929138184
1714064648385375700,2.959375732421875,0.011981010437011719,-0.006309300661087036,-0.004214450716972351
1714064648395255000,2.969255126953125,0.011786460876464844,-0.006031125783920288,0.0006513893604278564
1714064648405135000,2.979135009765625,0.0045318603515625,0.0013050436973571777,0.005436152219772339
1714064648415016200,2.98901611328125,0.009164810180664062,0.022527605295181274,0.010145202279090881
1714064648424896300,2.998896240234375,0.011365890502929688,0.0174981951713562,0.019480139017105103
1714064648434775600,3.008775634765625,0.008820533752441406,0.01726311445236206,0.019365310668945312
1714064648444655600,3.018655517578125,0.008675575256347656,0.007733792066574097,0.02160663902759552
1714064648454536400,3.028536376953125,0.0014705657958984375,-0.0016367137432098389,0.01674799621105194
1714064648464416500,3.03841650390625,0.020277976989746094,-0.010971784591674805,0.004903718829154968
1714064648474295800,3.0482958984375,0.003459930419921875,-0.0060239434242248535,-0.004503533244132996
1714064648484176100,3.058176025390625,0.0198822021484375,0.010612398386001587,0.007433772087097168
1714064648494057000,3.068056884765625,0.0101318359375,0.005783706903457642,0.007519781589508057
1714064648503937000,3.07793701171875,0.019384384155273438,0.019987672567367554,0.009839922189712524
1714064648513816300,3.08781640625,0.014354705810546875,0.029246538877487183,0.019302591681480408
1714064648523696400,3.0976962890625,0.011758804321289062,0.024107277393341064,0.01919078826904297
1714064648533577500,3.107577392578125,0.0045032501220703125,0.009755522012710571,0.02378927171230316
1714064648543457500,3.11745751953125,0.018552780151367188,-0.002123594284057617,0.018771618604660034
1714064648553336800,3.1273369140625,0.008824348449707031,-0.002033740282058716,0.006893649697303772
1714064648563217000,3.137216796875,0.0039691925048828125,0.00041091442108154297,0.0068700313568115234
1714064648573098000,3.147097900390625,0.0133209228515625,-0.013545900583267212,0.0022570788860321045
1714064648582978000,3.15697802734375,0.003681182861328125,0.007924199104309082,-0.0022789984941482544
1714064648592857300,3.166857421875,0.0036182403564453125,0.012554943561553955,0.009735852479934692
1714064648602737400,3.1767373046875,0.01768779754638672,0.021935611963272095,0.00495244562625885
1714064648612618500,3.186618408203125,0.015043258666992188,0.01939105987548828,0.023794785141944885
1714064648622498600,3.19649853515625,0.0053806304931640625,0.012180507183074951,0.009364306926727295
1714064648632377900,3.2063779296875,0.021768569946289062,0.004971504211425781,0.016480743885040283
1714064648642258000,3.2162578125,0.0072803497314453125,0.004945248365402222,0.0021721720695495605
1714064648652138800,3.226138671875,0.004810333251953125,-0.01615181565284729,0.0022232383489608765
1714064648662018800,3.236018798828125,0.018857955932617188,-0.006292670965194702,0.002392098307609558
1714064648671898000,3.245898193359375,-0.0026426315307617188,0.010464698076248169,0.00020395219326019287
1714064648681778400,3.2557783203125,0.020948410034179688,0.008109241724014282,0.009704619646072388
1714064648691659300,3.2656591796875,0.01589488983154297,0.019918203353881836,0.02140115201473236
1714064648701539300,3.275539306640625,0.010926246643066406,0.012698888778686523,0.009364768862724304
1714064648711418600,3.285418701171875,0.017807960510253906,0.014898031949996948,0.006945803761482239
1714064648721298700,3.295298583984375,0.0104522705078125,0.003054022789001465,0.023400723934173584
1714064648731179800,3.3051796875,0.007925033569335938,0.005532592535018921,0.011449724435806274
1714064648741059800,3.315059814453125,0.0007295608520507812,-0.006274014711380005,0.011468887329101562
1714064648750939100,3.324939208984375,0.017194747924804688,-0.006112843751907349,-0.00970005989074707
1714064648760819200,3.334819091796875,0.012203216552734375,-0.0011273026466369629,0.0023239105939865112
1714064648770700300,3.3447001953125,-0.002124786376953125,0.015427440404891968,0.009439095854759216
1714064648780580400,3.354580322265625,0.00968170166015625,0.03406047821044922,0.009373098611831665
1714064648790459600,3.364459716796875,0.009522438049316406,0.017188698053359985,0.007072672247886658
1714064648800339700,3.374339599609375,-0.009469985961914062,0.007542043924331665,0.02117130160331726
1714064648810220500,3.384220458984375,0.007166862487792969,-0.0019438564777374268,0.01620134711265564
1714064648820100600,3.3941005859375,0.0046939849853515625,-0.015980064868927002,0.016022637486457825
1714064648829980000,3.40397998046875,0.016387939453125,-0.010950863361358643,0.015842869877815247
1714064648839860200,3.413860107421875,0.01847362518310547,0.010592609643936157,-0.0008132606744766235
1714064648849741000,3.423740966796875,0.015811920166015625,-0.0012983381748199463,-0.0030625760555267334
1714064648859621000,3.43362109375,0.0037813186645507812,0.020086348056793213,0.006496593356132507
1714064648869500400,3.44350048828125,0.024908065795898438,0.031697869300842285,0.008952513337135315
1714064648879380500,3.45338037109375,0.005660057067871094,0.02663436532020569,0.011363506317138672
1714064648889261600,3.463261474609375,0.012627601623535156,0.009767711162567139,0.025509372353553772
1714064648899141600,3.4731416015625,-0.008771896362304688,0.012015670537948608,0.01823166012763977
1714064648909021000,3.48302099609375,0.012561798095703125,-0.006961554288864136,0.010956525802612305
1714064648918901000,3.49290087890625,0.002933502197265625,-0.011497348546981812,0.010983958840370178
1714064648928781800,3.50278173828125,0.007597923278808594,-0.004067808389663696,0.006183847784996033
1714064648938662000,3.512661865234375,0.016893386840820312,0.003237903118133545,0.006172120571136475
1714064648948541200,3.522541259765625,-0.011633872985839844,0.005713462829589844,-0.0009020119905471802
1714064648958421500,3.53242138671875,0.009752273559570312,0.02698129415512085,-0.0031498372554779053
1714064648968302300,3.54230224609375,0.00959014892578125,0.026588231325149536,0.0064107924699783325
1714064648978182400,3.552182373046875,0.00001621246337890625,0.014547348022460938,0.011218354105949402
1714064648988061700,3.562061767578125,0.004723548889160156,0.014359384775161743,0.011118680238723755
1714064648997941800,3.571941650390625,0.007004737854003906,-0.006892353296279907,0.006316319108009338
1714064649007822800,3.58182275390625,-0.0001697540283203125,-0.01366475224494934,0.011010780930519104
1714064649017703000,3.591702880859375,-0.0025157928466796875,0.003215581178665161,0.00620618462562561
1714064649027582200,3.601582275390625,0.01871490478515625,0.000983119010925293,0.0086669921875
1714064649037462300,3.611462158203125,-0.012198448181152344,0.012792199850082397,0.01084531843662262
1714064649047343000,3.621343017578125,0.0021314620971679688,0.010398030281066895,0.013224825263023376
1714064649057223200,3.63122314453125,-0.004961967468261719,0.026879429817199707,0.010741546750068665
1714064649067102700,3.641102783203125,0.01630878448486328,0.014717042446136475,0.01536223292350769
1714064649076982800,3.650982666015625,-0.009854316711425781,0.01935333013534546,0.012839332222938538
1714064649086863600,3.660863525390625,0.004435539245605469,0.012141376733779907,0.001060396432876587
1714064649096743700,3.67074365234375,0.013777732849121094,-0.006837904453277588,0.015377968549728394
1714064649106623000,3.680623046875,-0.0029315948486328125,-0.00666731595993042,0.00344201922416687
1714064649116503000,3.6905029296875,0.0041790008544921875,-0.011207997798919678,-0.0012323856353759766
1714064649126384000,3.700384033203125,0.0064640045166015625,0.010223209857940674,0.013004690408706665
1714064649136264200,3.71026416015625,0.008709907531738281,0.01010945439338684,0.003462493419647217
1714064649146143500,3.7201435546875,-0.00084686279296875,0.021887272596359253,0.022329702973365784
1714064649156023600,3.7300234375,0.010938644409179688,0.01686859130859375,0.012628063559532166
1714064649165904600,3.739904541015625,-0.00101470947265625,0.0025167465209960938,0.010150730609893799
1714064649175784700,3.74978466796875,0.0037145614624023438,0.00029596686363220215,0.014781281352043152
1714064649185664000,3.7596640625,0.0013036727905273438,-0.004244178533554077,-0.0018571317195892334
1714064649195544000,3.7695439453125,0.0059909820556640625,-0.0041189491748809814,-0.0017388612031936646
1714064649205425000,3.7794248046875,-0.0011692047119140625,0.01495864987373352,0.0008544027805328369
1714064649215305000,3.789304931640625,0.012973785400390625,0.00534704327583313,-0.006016373634338379
1714064649225184300,3.799184326171875,0.008048057556152344,0.026500195264816284,0.010650590062141418
1714064649235064300,3.809064208984375,-0.0085601806640625,0.028585970401763916,0.015268787741661072
1714064649244945400,3.8189453125,0.0009984970092773438,0.023457765579223633,0.015105664730072021
1714064649254825500,3.828825439453125,-0.0037212371826171875,0.01853373646736145,0.014945253729820251
1714064649264704800,3.838704833984375,0.015178680419921875,-0.00043338537216186523,0.01007913053035736
1714064649274584800,3.848584716796875,-0.0039033889770507812,-0.009669750928878784,0.0005816817283630371
1714064649284465700,3.858465576171875,-0.0038385391235351562,0.004671066999435425,0.003013521432876587
1714064649294345700,3.868345703125,0.012704849243164062,-0.00005856156349182129,0.0030546486377716064
1714064649304225300,3.878225341796875,0.010136604309082031,0.0023532211780548096,0.0079222172498703
1714064649314105300,3.888105224609375,-0.006511688232421875,0.016495823860168457,0.0008189529180526733
1714064649323986200,3.897986083984375,0.0030126571655273438,0.013923317193984985,0.010313451290130615
1714064649333866200,3.9078662109375,-0.0017404556274414062,0.02092921733856201,0.014941304922103882
1714064649343745500,3.91774560546875,-0.0064182281494140625,0.020755738019943237,0.007839784026145935
1714064649353625600,3.92762548828125,0.0054645538330078125,0.008814185857772827,0.024279847741127014
1714064649363506700,3.937506591796875,-0.0016841888427734375,-0.007638871669769287,0.007483139634132385
1714064649373386800,3.94738671875,-0.0016565322875976562,-0.0003923475742340088,0.00980396568775177
1714064649383266000,3.95726611328125,0.003078460693359375,-0.0050376057624816895,0.00031512975692749023
1714064649393146000,3.96714599609375,0.0030269622802734375,0.009228169918060303,-0.0019529610872268677
1714064649403027000,3.97702685546875,-0.004084587097167969,0.018547773361206055,0.009941935539245605
1714064649412907000,3.986906982421875,0.0077533721923828125,0.018293112516403198,0.00986357033252716
1714064649422786300,3.996786376953125,0.0005617141723632812,0.029813706874847412,0.007432311773300171
1714064649432666600,4.00666650390625,-0.008863449096679688,0.012894034385681152,0.007399797439575195
1714064649442547500,4.01654736328125,-0.008715629577636719,-0.0013894140720367432,0.005013629794120789
1714064649452427500,4.026427490234375,-0.0038614273071289062,-0.0013096332550048828,0.007375612854957581
1714064649462306800,4.036306884765625,0.010332107543945312,-0.008175075054168701,0.0026356279850006104
1714064649472187000,4.046186767578125,-0.003963470458984375,-0.010217666625976562,-0.0019065886735916138
1714064649482068000,4.05606787109375,0.00316619873046875,0.004253178834915161,0.005397886037826538
1714064649491948000,4.065947998046875,-0.0039463043212890625,0.00906604528427124,0.005518019199371338
1714064649501827300,4.075827392578125,0.012597084045410156,0.023096740245819092,0.015052899718284607
1714064649511707400,4.085707275390625,-0.0017385482788085938,0.03218519687652588,0.010184988379478455
1714064649521588200,4.095588134765625,-0.004058837890625,0.02711576223373413,0.019523397088050842
1714064649531468300,4.10546826171875,-0.003989219665527344,-0.001411139965057373,0.01940809190273285
1714064649541347600,4.11534765625,-0.0015707015991210938,-0.0013310015201568604,0.0004611164331436157
1714064649551227600,4.1252275390625,-0.013317108154296875,-0.008314788341522217,0.003017723560333252
1714064649561108700,4.135108642578125,0.010448455810546875,-0.008000850677490234,-0.003885045647621155
1714064649570988800,4.14498876953125,0.010275840759277344,-0.0006295740604400635,0.0034523755311965942
1714064649580868000,4.1548681640625,-0.006373405456542969,0.020743995904922485,0.010667502880096436
1714064649590748200,4.164748046875,-0.0015535354614257812,0.02528202533721924,0.010581061244010925
1714064649600629000,4.17462890625,0.0031843185424804688,0.0250360369682312,0.008141875267028809
1714064649610509000,4.184509033203125,-0.003930091857910156,0.01761278510093689,0.022222712635993958
1714064649620388600,4.194388671875,-0.0038623809814453125,0.0010152161121368408,0.022062405943870544
1714064649630268700,4.2042685546875,0.0009145736694335938,-0.0011805593967437744,0.0029524564743041992
1714064649640149500,4.2141494140625,0.0008974075317382812,-0.0105210542678833,-0.003949224948883057
1714064649650029600,4.224029541015625,0.0008802413940429688,-0.005580693483352661,-0.0036733150482177734
1714064649659908900,4.233908935546875,0.0032176971435546875,0.001633673906326294,0.008372962474822998
1714064649669789000,4.243788818359375,-0.0038928985595703125,0.011198580265045166,0.005970567464828491
1714064649679670000,4.253669921875,0.000881195068359375,0.020604103803634644,0.017852142453193665
1714064649689550000,4.263550048828125,-0.006191253662109375,0.01337343454360962,0.020000159740447998
1714064649699429400,4.273429443359375,-0.0060882568359375,0.013205021619796753,0.00327475368976593
1714064649709309400,4.283309326171875,-0.003631591796875,0.0036247968673706055,0.017436712980270386
1714064649719190300,4.293190185546875,-0.0059261322021484375,-0.00579795241355896,0.010170862078666687
1714064649729070300,4.3030703125,-0.0034704208374023438,-0.0055259764194488525,0.014919817447662354
1714064649738949600,4.31294970703125,-0.012829780578613281,-0.010087788105010986,0.0006333142518997192
1714064649748829700,4.32282958984375,-0.0008401870727539062,0.011441290378570557,-0.0016441047191619873
1714064649758710800,4.332710693359375,-0.0055332183837890625,0.004363387823104858,0.003301769495010376
1714064649768590800,4.3425908203125,0.008686065673828125,0.023299574851989746,0.012873604893684387
1714064649778470100,4.35247021484375,0.008545875549316406,0.023086577653884888,0.005687788128852844
1714064649788350200,4.36235009765625,-0.0033617019653320312,0.00875195860862732,0.008038535714149475
1714064649798231000,4.37223095703125,-0.008012771606445312,0.01584404706954956,0.015177235007286072
1714064649808111000,4.382111083984375,-0.007877349853515625,-0.005432456731796265,0.012780174612998962
1714064649817990400,4.391990478515625,-0.0006856918334960938,-0.014702081680297852,0.0033604204654693604
1714064649827870700,4.40187060546875,-0.01715373992919922,-0.004983663558959961,0.003395766019821167
1714064649837751600,4.41175146484375,-0.0027370452880859375,-0.007079452276229858,-0.0012778639793395996
1714064649847631600,4.421631591796875,-0.00033283233642578125,0.009693235158920288,-0.0011652261018753052
1714064649857511000,4.431510986328125,0.004382133483886719,0.019123762845993042,0.006126835942268372
1714064649867391000,4.441390869140625,0.00431060791015625,0.026042968034744263,0.015651553869247437
1714064649877272000,4.45127197265625,-0.0028247833251953125,0.01389455795288086,0.017954975366592407
1714064649887152000,4.461152099609375,-0.016905784606933594,0.00901120901107788,0.008449003100395203
1714064649897031400,4.471031494140625,0.0045680999755859375,0.006682157516479492,0.022524714469909668
1714064649906911500,4.480911376953125,-0.0049228668212890625,-0.01444166898727417,0.005879983305931091
1714064649916792300,4.490792236328125,-0.0001277923583984375,-0.004608869552612305,0.0011649280786514282
1714064649926672400,4.50067236328125,0.006941795349121094,0.0003516972064971924,0.001236841082572937
1714064649936551700,4.5105517578125,0.004475593566894531,0.01700049638748169,0.006015956401824951
1714064649946431700,4.520431640625,0.011466026306152344,0.019246667623519897,0.015542522072792053
1714064649956312800,4.530312744140625,0.0018596649169921875,0.021455436944961548,0.008430972695350647
1714064649966193000,4.54019287109375,0.008893013000488281,0.02598157525062561,0.020271509885787964
1714064649976072200,4.550072265625,-0.0030202865600585938,0.00924450159072876,0.020024985074996948
1714064649985952300,4.5599521484375,0.006445884704589844,0.0020844638347625732,0.026845157146453857
1714064649995833000,4.5698330078125,0.003983497619628906,-0.004956245422363281,0.002947106957435608
1714064650005713200,4.579713134765625,-0.003139495849609375,-0.007052481174468994,0.002989336848258972
1714064650015592400,4.589592529296875,0.011037826538085938,-0.004524141550064087,0.0006766468286514282
1714064650025472500,4.599472412109375,0.001438140869140625,0.005143404006958008,0.019709035754203796
1714064650035353600,4.609353515625,0.013188362121582031,0.017004013061523438,0.005465447902679443
1714064650045233700,4.619233642578125,-0.003513336181640625,0.01677510142326355,0.0032261908054351807
1714064650055113000,4.629113037109375,0.0059661865234375,0.023733437061309814,0.02680574357509613
1714064650064993000,4.638992919921875,-0.010606765747070312,0.011740058660507202,0.019383728504180908
1714064650074873900,4.648873779296875,0.006052970886230469,0.0023029744625091553,0.007381036877632141
1714064650084754000,4.65875390625,0.010664939880371094,-0.004624813795089722,0.002636954188346863
1714064650094633200,4.66863330078125,0.008131027221679688,-0.0044911205768585205,0.0028030723333358765
1714064650104513500,4.678513427734375,0.012704849243164062,-0.006713837385177612,-0.001860693097114563
1714064650114394400,4.688394287109375,0.0030727386474609375,0.012288212776184082,-0.001619577407836914
1714064650124274400,4.6982744140625,0.014791488647460938,0.02391102910041809,0.012742698192596436
1714064650134153700,4.70815380859375,0.0027751922607421875,0.03075045347213745,0.008031994104385376
1714064650144033800,4.71803369140625,0.0027303695678710938,0.018642306327819824,0.012816622853279114
1714064650153915000,4.727914794921875,-0.006732940673828125,0.0066172778606414795,0.017521515488624573
1714064650163795000,4.737794921875,-0.004267692565917969,-0.0004989802837371826,0.012731194496154785
1714064650173674000,4.747674072265625,0.007571220397949219,-0.007496654987335205,0.012729078531265259
1714064650183554300,4.75755419921875,0.005095481872558594,-0.007196336984634399,0.010254085063934326
1714064650193435100,4.76743505859375,0.0073642730712890625,0.000042825937271118164,-0.006304830312728882
1714064650203315200,4.777315185546875,0.00018405914306640625,0.016696840524673462,0.0009541958570480347
1714064650213194500,4.787194580078125,0.0072479248046875,0.023656487464904785,0.012800633907318115
1714064650223074600,4.797074462890625,0.007124900817871094,0.030381441116333008,0.008088991045951843
1714064650232955600,4.80695556640625,-0.00005817413330078125,0.013452291488647461,0.012872695922851562
1714064650242835700,4.816835693359375,-0.000057220458984375,0.003867924213409424,0.02216629683971405
1714064650252715000,4.826715087890625,0.0046520233154296875,-0.0032025277614593506,0.005408823490142822
1714064650262595000,4.836594970703125,0.006926536560058594,-0.0078009068965911865,0.0078829824924469
1714064650272476000,4.846475830078125,0.0091705322265625,-0.007495492696762085,0.007842972874641418
1714064650282356000,4.85635595703125,0.016084671020507812,-0.007195204496383667,0.0030952095985412598
1714064650292235300,4.8662353515625,-0.0030145645141601562,-0.0021915435791015625,0.005607932806015015
1714064650302115300,4.876115234375,0.0017414093017578125,0.007318407297134399,0.005724593997001648
1714064650311996400,4.885996337890625,0.008775711059570312,0.019024014472961426,0.010428950190544128
1714064650321876500,4.89587646484375,-0.0031366348266601562,0.02829912304878235,0.019763290882110596
1714064650331755800,4.905755859375,-0.010149002075195312,0.0255298912525177,0.033769190311431885
1714064650341635800,4.9156357421875,-0.007624626159667969,0.01115456223487854,0.012228727340698242
1714064650351516700,4.9255166015625,-0.00043487548828125,-0.01016247272491455,0.014470472931861877
1714064650361396700,4.935396728515625,0.001926422119140625,-0.005230218172073364,0.014316648244857788
1714064650371276000,4.945276123046875,0.018372535705566406,-0.002732217311859131,-0.0021912455558776855
1714064650381156000,4.955156005859375,0.003940582275390625,0.006786733865737915,0.0026450157165527344
1714064650391037200,4.965037109375,0.010938644409179688,0.01143646240234375,0.002688288688659668
1714064650400917200,4.974917236328125,0.015468597412109375,0.016129672527313232,0.002734854817390442
1714064650410796500,4.984796630859375,0.008148193359375,0.018271654844284058,0.014551609754562378
1714064650420676600,4.994676513671875,-0.008462905883789062,0.011079937219619751,0.02617146074771881
1714064650430557400,5.004557373046875,0.010512351989746094,0.0015351176261901855,0.01640985906124115
1714064650440437500,5.0144375,0.0032787322998046875,-0.005379796028137207,0.011515334248542786
1714064650450316800,5.02431689453125,0.005576133728027344,-0.009941905736923218,0.004470944404602051
1714064650460196900,5.03419677734375,0.0054836273193359375,-0.007367521524429321,-0.004932999610900879
1714064650470078000,5.044077880859375,0.007746696472167969,-0.009542286396026611,-0.00005100667476654053
1714064650479958000,5.0539580078125,0.0029134750366210938,0.004917323589324951,0.00004121661186218262
1714064650489837300,5.06383740234375,0.007575035095214844,0.01913592219352722,0.014375820755958557
1714064650499717400,5.07371728515625,-0.0066776275634765625,0.01651942729949951,0.011992201209068298
1714064650509598200,5.08359814453125,-0.004212379455566406,0.028071731328964233,0.021300509572029114
1714064650519478300,5.093478271484375,0.0029249191284179688,0.0042372941970825195,0.01397426426410675
1714064650529357600,5.103357666015625,0.005229949951171875,-0.00990191102027893,0.01618693768978119
1714064650539237600,5.113237548828125,0.007502555847167969,-0.004853099584579468,0.011300146579742432
1714064650549118700,5.12311865234375,0.009734153747558594,-0.01636776328086853,0.0019051730632781982
1714064650558998800,5.132998779296875,0.0025129318237304688,0.005266070365905762,-0.007456004619598389
1714064650568878000,5.142878173828125,0.0001163482666015625,0.026420533657073975,-0.009598597884178162
1714064650578758100,5.152758056640625,0.007182121276855469,0.033218175172805786,0.0047779381275177
1714064650588639000,5.162638916015625,0.011769294738769531,0.009179234504699707,0.014325261116027832
1714064650598519000,5.17251904296875,0.004511833190917969,0.023328959941864014,0.01900908350944519
1714064650608398300,5.1823984375,0.0067958831787109375,0.011342376470565796,0.01877962052822113
1714064650618278400,5.1922783203125,0.011391639709472656,-0.0005631148815155029,0.013845577836036682
1714064650628159500,5.202159423828125,-0.0005702972412109375,-0.012268096208572388,-0.0004189610481262207
1714064650638039600,5.21203955078125,0.004145622253417969,-0.00023597478866577148,0.006860777735710144
1714064650647918800,5.2219189453125,0.013491630554199219,0.009241342544555664,-0.0024602115154266357
1714064650657799000,5.231798828125,-0.005568504333496094,0.009143978357315063,0.007207766175270081
1714064650667679700,5.2416796875,0.003945350646972656,0.01858377456665039,0.009533226490020752
1714064650677559800,5.251559814453125,0.0015277862548828125,0.018449455499649048,0.02135549485683441
1714064650687439000,5.261439208984375,0.013278007507324219,0.018315225839614868,0.006961733102798462
1714064650697319200,5.271319091796875,0.005993843078613281,0.008649855852127075,0.0022286921739578247
1714064650707200300,5.2812001953125,0.0035390853881835938,-0.0008544325828552246,0.006991356611251831
1714064650717080300,5.291080322265625,0.0011262893676757812,-0.005491971969604492,0.00696621835231781
1714064650726959400,5.30095947265625,0.00817108154296875,-0.0006375014781951904,-0.0024792999029159546
1714064650736839700,5.310839599609375,0.010388374328613281,0.011198580265045166,-0.0023505985736846924
1714064650746720500,5.320720458984375,-0.003909111022949219,-0.000585705041885376,0.00495736300945282
1714064650756600600,5.3306005859375,0.0008668899536132812,0.02078723907470703,0.007439106702804565
1714064650766480000,5.34047998046875,0.007917404174804688,0.01590782403945923,0.01458786427974701
1714064650776360000,5.35035986328125,-0.0016345977783203125,0.022761940956115723,0.01690913736820221
1714064650786240800,5.36024072265625,-0.00395965576171875,0.006078660488128662,0.016837522387504578
1714064650796120800,5.370120849609375,0.005528450012207031,0.008506953716278076,0.014294072985649109
1714064650806000000,5.380000244140625,0.0077953338623046875,-0.0032325387001037598,0.004726439714431763
1714064650815880200,5.389880126953125,-0.0017528533935546875,-0.007830411195755005,-0.007031917572021484
1714064650825761300,5.39976123046875,0.010049819946289062,0.008954912424087524,0.002712264657020569
1714064650835641300,5.409641357421875,-0.013654708862304688,0.013689517974853516,-0.0019499212503433228
1714064650845520600,5.419520751953125,0.017177581787109375,0.020580589771270752,0.009944945573806763
1714064650855400700,5.429400634765625,0.0027704238891601562,0.01805669069290161,0.012220799922943115
1714064650865281500,5.439281494140625,0.014495849609375,0.020164459943771362,0.009750306606292725
1714064650875161600,5.44916162109375,-0.009287834167480469,0.008111923933029175,0.02850879728794098
1714064650885041000,5.459041015625,0.009700775146484375,-0.0037375986576080322,0.009291455149650574
1714064650894921000,5.4689208984375,0.014245986938476562,-0.0036208033561706543,0.006988614797592163
1714064650904802000,5.478802001953125,-0.0024671554565429688,-0.0010308027267456055,0.009317755699157715
1714064650914681900,5.488681884765625,0.016412734985351562,0.0038702189922332764,0.0021912753582000732
1714064650924561400,5.4985615234375,-0.0050487518310546875,0.006216585636138916,0.004600360989570618
1714064650934441500,5.50844140625,0.016228675842285156,0.020413577556610107,-0.004801690578460693
1714064650944322300,5.518322265625,0.013608932495117188,0.010832041501998901,0.0024323314428329468
1714064650954202400,5.528202392578125,0.0039653778076171875,0.020122826099395752,0.01660439372062683
1714064650964081700,5.53808154296875,-0.0031595230102539062,0.022317111492156982,0.009356468915939331
1714064650973961700,5.547961669921875,0.0016040802001953125,0.0032870471477508545,0.009410753846168518
1714064650983842600,5.557842529296875,-0.012545585632324219,-0.00836324691772461,0.0071099549531936646
1714064650993722600,5.56772265625,0.015918731689453125,-0.003342151641845703,0.0070788562297821045
1714064651003602000,5.577601806640625,0.008595466613769531,-0.0031131207942962646,0.007048264145851135
1714064651013482000,5.58748193359375,0.015512466430664062,0.006412208080291748,0.004786819219589233
1714064651023363000,5.597363037109375,0.005840301513671875,0.025195538997650146,0.004679635167121887
1714064651033243100,5.6072431640625,0.008096694946289062,0.020121723413467407,0.0070432573556900024
1714064651043122400,5.617122314453125,-0.0014505386352539062,0.019961804151535034,0.014079853892326355
1714064651053002500,5.62700244140625,0.0009317398071289062,0.005679428577423096,0.0162908136844635
1714064651062883300,5.63688330078125,-0.0014371871948242188,0.0032850801944732666,0.004335731267929077
1714064651072763400,5.646763427734375,-0.0014085769653320312,-0.00836518406867981,0.004354894161224365
1714064651082642700,5.656642578125,0.0009737014770507812,-0.005698263645172119,-0.002692878246307373
1714064651092522800,5.666522705078125,-0.0013914108276367188,-0.010138332843780518,-0.004914790391921997
1714064651102403600,5.676403564453125,-0.0013666152954101562,0.009037554264068604,-0.009335041046142578
1714064651112283600,5.68628369140625,0.0033693313598632812,0.009062409400939941,0.007391348481178284
1714064651122163000,5.696162841796875,0.0033130645751953125,0.011322200298309326,0.01206795871257782
1714064651132043000,5.70604296875,0.015033721923828125,0.018369436264038086,0.009600028395652771
1714064651141924000,5.715924072265625,-0.011112213134765625,0.015765756368637085,0.014239847660064697
1714064651151804200,5.72580419921875,0.0031976699829101562,-0.0032739341259002686,0.018802344799041748
1714064651161683500,5.735683349609375,-0.0015592575073242188,-0.0006918609142303467,0.004451170563697815
1714064651171563500,5.7455634765625,0.0031795501708984375,-0.014632165431976318,-0.00024400651454925537
1714064651181444400,5.7554443359375,-0.00864410400390625,-0.007269054651260376,0.01162247359752655
1714064651191324400,5.765324462890625,-0.006144523620605469,0.002444356679916382,0.002222195267677307
1714064651201203700,5.77520361328125,0.015146255493164062,0.018941789865493774,0.0022805780172348022
1714064651211083800,5.785083740234375,0.007831573486328125,0.01632857322692871,0.0023339837789535522
1714064651220964900,5.79496484375,-0.011136054992675781,0.025529861450195312,0.009686768054962158
1714064651230844700,5.8048447265625,-0.013303756713867188,0.01586306095123291,0.014443948864936829
1714064651240724000,5.814723876953125,0.008106231689453125,-0.003180384635925293,0.00016543269157409668
1714064651250604300,5.824604248046875,-0.010857582092285156,-0.007660269737243652,0.01202508807182312
1714064651260485000,5.834485107421875,-0.00125885009765625,-0.012065529823303223,0.0026181191205978394
1714064651270365200,5.844365234375,0.012889862060546875,0.004790455102920532,0.00043050944805145264
1714064651280244500,5.854244384765625,0.010324478149414062,0.004886060953140259,0.0005147457122802734
1714064651290124500,5.86412451171875,-0.0039730072021484375,0.0072154700756073,0.00530599057674408
1714064651300005400,5.87400537109375,-0.0039119720458984375,0.018801867961883545,0.028965771198272705
1714064651309885400,5.883885498046875,0.014992713928222656,0.04220595955848694,-0.004384338855743408
1714064651319764700,5.8937646484375,0.0971384048461914,0.03249245882034302,-0.036477744579315186
1714064651329644800,5.903644775390625,0.07663631439208984,0.1639341115951538,-0.25403502583503723
1714064651339525600,5.913525634765625,0.2634706497192383,0.1902691125869751,-1.3879603147506714
1714064651349405700,5.92340576171875,-1.1061601638793945,0.7114205956459045,-3.1887247562408447
1714064651359285000,5.933284912109375,-0.3747243881225586,0.3586335778236389,-2.942357063293457
1714064651369165000,5.9431650390625,1.393458366394043,-0.2994484603404999,-0.8563859462738037
1714064651379046100,5.953046142578125,0.697296142578125,-0.15303054451942444,-2.267723798751831
1714064651388926200,5.96292626953125,-1.1908960342407227,0.18113009631633759,-2.9244420528411865
1714064651398805500,5.972805419921875,0.8443498611450195,0.160147562623024,-1.8717575073242188
1714064651408685600,5.982685546875,0.529322624206543,0.2155078649520874,-3.2731237411499023
1714064651418566400,5.99256640625,-1.5016651153564453,0.517499566078186,-3.7571914196014404
1714064651428446500,6.002446533203125,0.16193580627441406,0.3187616169452667,-2.8228015899658203
1714064651438325800,6.01232568359375,0.9614467620849609,-0.4229169189929962,-3.376585006713867
1714064651448205800,6.022205810546875,-0.027359962463378906,0.009728491306304932,-4.1687116622924805
1714064651458086700,6.032086669921875,-0.9610176086425781,0.6126658916473389,-3.20076322555542
1714064651467966700,6.041966796875,-0.6957712173461914,0.1617792844772339,-2.56638240814209
1714064651477846000,6.051845947265625,-0.1497936248779297,-0.43588945269584656,-3.9840927124023438
1714064651487726000,6.06172607421875,0.08393001556396484,-0.668228030204773,-4.906813621520996
1714064651497607200,6.071607177734375,-1.547079086303711,1.9139044284820557,-2.504261016845703
1714064651507487000,6.081487060546875,-0.015872955322265625,1.508048176765442,-0.8891085386276245
1714064651517366300,6.0913662109375,5.596348762512207,-0.2772073745727539,-2.5059866905212402
1714064651527246300,6.101246337890625,0.7173519134521484,-0.2816018760204315,-3.988449811935425
1714064651537127400,6.11112744140625,-2.897672653198242,-0.7559133768081665,-3.7533421516418457
1714064651547007500,6.121007568359375,0.5504570007324219,0.7183921337127686,-2.0171518325805664
1714064651556886800,6.13088671875,-0.6683454513549805,0.9544346332550049,-1.843592882156372
1714064651566766800,6.140766845703125,0.843043327331543,1.385607123374939,-1.4485071897506714
1714064651576647700,6.150647705078125,0.5710382461547852,0.7491453886032104,-3.497652292251587
1714064651586527700,6.16052783203125,-2.057055950164795,0.15479625761508942,-2.7807397842407227
1714064651596407000,6.170406982421875,0.24075698852539062,0.273822546005249,-1.1722996234893799
1714064651606287000,6.180287109375,-0.6266441345214844,-0.3981435000896454,-2.0226333141326904
1714064651616168000,6.19016796875,-1.075942039489746,0.32544276118278503,-3.6035361289978027
1714064651626048000,6.200048095703125,2.7812700271606445,0.20765340328216553,-2.738253355026245
1714064651635927300,6.20992724609375,2.9429588317871094,-0.2468383014202118,-2.0331811904907227
1714064651645807400,6.219807373046875,-1.1604337692260742,-0.019503265619277954,-2.480902910232544
1714064651655688400,6.2296884765625,-3.7103028297424316,0.9279146194458008,-2.3853697776794434
1714064651665568300,6.239568359375,0.3182191848754883,0.9616807103157043,-0.8282471895217896
1714064651675447600,6.249447509765625,0.5040397644042969,0.3395725190639496,-2.135761022567749
1714064651685328000,6.259327880859375,1.0736207962036133,0.18627332150936127,-2.283358097076416
1714064651695208700,6.269208740234375,0.7214374542236328,-0.3441559970378876,-1.8798537254333496
1714064651705088800,6.2790888671875,-0.5897302627563477,-1.512723684310913,0.09712351858615875
1714064651714968000,6.288968017578125,-1.2080421447753906,3.876188039779663,0.2328987717628479
1714064651724848000,6.29884814453125,-6.1219964027404785,2.6290831565856934,-5.151203632354736
1714064651734729000,6.30872900390625,6.16041374206543,0.18439950048923492,-3.656421661376953
1714064651744609000,6.318609130859375,4.26656436920166,-0.8945165872573853,-0.33086174726486206
1714064651754488300,6.32848828125,-1.1820507049560547,0.2086268663406372,0.9043107032775879
1714064651764368400,6.338368408203125,-2.7834792137145996,-0.17520281672477722,-2.513118267059326
1714064651774249200,6.348249267578125,2.5071840286254883,0.5271432995796204,-1.3894041776657104
1714064651784129300,6.35812939453125,-0.7406721115112305,0.9182209968566895,-2.1778526306152344
1714064651794008600,6.368008544921875,-4.370667934417725,0.1676175594329834,-1.500291347503662
1714064651803888600,6.377888671875,1.0919456481933594,0.79136061668396,-1.4173651933670044
1714064651813769700,6.387769775390625,2.2295408248901367,-1.1735289096832275,-2.9410359859466553
1714064651823649500,6.3976494140625,-0.19992637634277344,2.672200918197632,0.05135898292064667
1714064651833528800,6.40752880859375,-2.3682169914245605,4.256912708282471,1.2746663093566895
1714064651843409000,6.417408935546875,3.2655019760131836,0.16220249235630035,-0.4145600497722626
1714064651853290000,6.4272900390625,2.129340171813965,-1.8292715549468994,-3.582590341567993
1714064651863170000,6.437170166015625,-0.3201732635498047,-0.30049777030944824,-1.7236557006835938
1714064651873049000,6.447049072265625,-2.6305437088012695,0.9256280064582825,-0.703079879283905
1714064651882929400,6.456929443359375,2.343234062194824,1.205514907836914,-0.7901901006698608
1714064651892810200,6.466810302734375,-1.137857437133789,1.6269032955169678,-1.5699524879455566
1714064651902690300,6.476690185546875,-2.3476204872131348,-0.723598837852478,-1.3777210712432861
1714064651912569600,6.486569580078125,1.8105497360229492,-0.22852829098701477,-2.3296775817871094
1714064651922449700,6.49644970703125,2.5759716033935547,0.9006463289260864,-1.0066956281661987
1714064651932330500,6.50633056640625,-2.600277900695801,0.9256366491317749,1.4215880632400513
1714064651942210600,6.51621044921875,-0.9851198196411133,2.912604331970215,-0.1461721509695053
1714064651952089900,6.52608984375,-3.193575859069824,2.355180263519287,-5.516750812530518
1714064651961970000,6.535969970703125,0.2418079376220703,1.494713306427002,-1.2724125385284424
1714064651971851000,6.54585107421875,5.389700889587402,-1.8058066368103027,-2.564073085784912
1714064651981730800,6.555730712890625,5.64689826965332,-0.03654494881629944,1.660617470741272
1714064651991610000,6.565610107421875,-2.2727413177490234,1.4534071683883667,0.6523072719573975
1714064652001490200,6.575490234375,-7.173839569091797,1.1545484066009521,-2.0139007568359375
1714064652011371300,6.585371337890625,0.35935020446777344,1.9367197751998901,-1.859152913093567
1714064652021251000,6.5952509765625,3.9493093490600586,0.5842238068580627,-0.590996503829956
1714064652031130400,6.60513037109375,-0.9150285720825195,2.442387342453003,2.808655023574829
1714064652041010400,6.615010498046875,-4.55370569229126,1.37478506565094,-1.692582368850708
1714064652050891500,6.6248916015625,3.4194021224975586,1.9017223119735718,-1.4333101511001587
1714064652060771600,6.634771484375,1.4527759552001953,-0.0984058678150177,1.3416097164154053
1714064652070651000,6.64465087890625,1.441990852355957,0.5206989645957947,-2.0382392406463623
1714064652080531000,6.654531005859375,-2.377933979034424,2.22060489654541,-1.0565423965454102
1714064652090411800,6.664411865234375,-2.5552978515625,1.048492670059204,-4.643901348114014
1714064652100291800,6.674291748046875,3.648369789123535,-0.2834010422229767,-0.41574162244796753
1714064652110171100,6.684171142578125,3.593369483947754,-0.04947212338447571,0.5130302309989929
1714064652120051200,6.69405126953125,-2.1282095909118652,1.1820632219314575,0.8300057649612427
1714064652129932000,6.70393212890625,-2.8747220039367676,2.6078057289123535,-2.5756335258483887
1714064652139812000,6.71381201171875,-2.9200048446655273,3.646752119064331,0.6207709908485413
1714064652149691400,6.72369140625,2.936450958251953,0.23033329844474792,1.36083984375
1714064652159571500,6.733571533203125,3.3118019104003906,-0.2722838222980499,-0.46508878469467163
1714064652169452300,6.743452392578125,1.1936273574829102,0.3422747850418091,-2.5019209384918213
1714064652179332400,6.753332275390625,-3.9107656478881836,1.872780442237854,-0.8711101412773132
1714064652189211600,6.763211669921875,0.7848348617553711,2.6171679496765137,-1.0385332107543945
1714064652199091700,6.773091796875,-1.3280353546142578,0.8207162022590637,0.8555485010147095
1714064652208972500,6.78297265625,0.6777687072753906,-0.67505943775177,-4.060037612915039
1714064652218852600,6.7928525390625,2.2582015991210938,0.862980842590332,-0.3024532198905945
1714064652228732000,6.80273193359375,-0.7847661972045898,3.844756603240967,2.841660499572754
1714064652238612000,6.812612060546875,-3.263072967529297,1.9409679174423218,1.530832290649414
1714064652248493000,6.8224931640625,2.254971504211426,2.9093337059020996,-1.5574356317520142
1714064652258372900,6.832372802734375,-0.7401876449584961,-0.6804472208023071,-4.674867630004883
1714064652268252200,6.842252197265625,3.2066221237182617,-0.48044946789741516,-0.48620206117630005
1714064652278132200,6.85213232421875,1.4856204986572266,1.4982092380523682,1.3067392110824585
1714064652288013300,6.862013427734375,-4.220930099487305,1.856656789779663,-0.7922531366348267
1714064652297893400,6.871893310546875,-3.8663244247436523,2.2310101985931396,0.5048262476921082
1714064652307772700,6.881772705078125,4.48075008392334,0.9593158960342407,1.3912028074264526
1714064652317652500,6.891652587890625,3.36885929107666,1.6305574178695679,-0.5200897455215454
1714064652327533600,6.901533447265625,-4.432133674621582,3.394590139389038,-0.05527651309967041
1714064652337413600,6.91141357421875,-0.5902919769287109,1.5471901893615723,-2.0842583179473877
1714064652347293000,6.92129296875,2.293802261352539,1.1710151433944702,-0.5881974697113037
1714064652357173000,6.931173095703125,1.1940250396728516,-0.2984306216239929,-0.9937007427215576
1714064652367053800,6.9410537109375,-1.584188461303711,1.0629640817642212,-1.2511701583862305
1714064652376934000,6.950933837890625,-2.666752815246582,3.7320263385772705,0.9151395559310913
1714064652386813200,6.960813232421875,0.9558000564575195,1.1018292903900146,0.8854394555091858
1714064652396693200,6.970693359375,0.2778053283691406,1.4549425840377808,0.1755763590335846
1714064652406574000,6.980573974609375,0.28975391387939453,0.8445980548858643,-2.5334160327911377
1714064652416454100,6.9904541015625,5.1032915115356445,0.41733288764953613,-0.20226803421974182
1714064652426333400,7.00033349609375,-0.2909812927246094,1.3988268375396729,0.2119818925857544
1714064652436213500,7.010213623046875,-4.932641983032227,2.269040584564209,-0.10171957314014435
1714064652446094300,7.02009423828125,-2.93800687789917,2.42463755607605,-1.8212796449661255
1714064652455974400,7.029974365234375,2.473904609680176,0.565923810005188,0.8185092210769653
1714064652465853700,7.039853759765625,4.2752532958984375,-0.14580745995044708,0.384507417678833
1714064652475733800,7.049733642578125,-0.7911138534545898,2.5738797187805176,-1.7317861318588257
1714064652485614600,7.059614501953125,-3.1601004600524902,3.150615930557251,-0.16544783115386963
1714064652495494700,7.06949462890625,0.3136482238769531,3.6805686950683594,0.1338491439819336
1714064652505374000,7.0793740234375,-1.4491634368896484,-0.06009787321090698,-0.9506504535675049
1714064652515254000,7.08925390625,4.182794570922852,0.061132416129112244,-1.3542470932006836
1714064652525134800,7.099134765625,0.13848590850830078,2.177173137664795,1.466681957244873
1714064652535015000,7.109014892578125,-2.8751845359802246,-0.246688574552536,1.4341864585876465
1714064652544894200,7.118894287109375,3.2243242263793945,2.6619153022766113,-0.1208801120519638
1714064652554774300,7.128774169921875,1.3861083984375,0.7052605152130127,-1.8720099925994873
1714064652564655000,7.138655029296875,-1.7874326705932617,1.1245615482330322,0.6327444314956665
1714064652574535200,7.14853515625,-2.284496307373047,4.287568092346191,0.9971718192100525
1714064652584414500,7.15841455078125,-3.0687294006347656,2.1560614109039307,-2.284202814102173
1714064652594294500,7.16829443359375,-0.6960248947143555,2.1306519508361816,0.22606611251831055
1714064652604175400,7.17817529296875,2.6274070739746094,-0.6984728574752808,-1.5481013059616089
1714064652614055400,7.188055419921875,4.399191856384277,0.5549547076225281,-0.3767857849597931
1714064652623934700,7.197934814453125,-1.7276277542114258,2.956871747970581,-0.14398358762264252
1714064652633814800,7.207814697265625,-0.4363584518432617,-0.23757284879684448,1.2113330364227295
1714064652643695900,7.21769580078125,5.130616188049316,2.816476345062256,0.7286243438720703
1714064652653575700,7.22757568359375,-2.347534656524658,1.4842360019683838,-1.4271804094314575
1714064652663455000,7.237455078125,-7.203843593597412,1.780671238899231,-1.3311432600021362
1714064652673335000,7.2473349609375,2.0391693115234375,1.764073371887207,-1.9804991483688354
1714064652683216100,7.257216064453125,1.2126874923706055,0.8421377539634705,2.1402361392974854
1714064652693096000,7.267095947265625,0.6470203399658203,1.2629108428955078,2.2507269382476807
1714064652702975200,7.276975341796875,-1.7452564239501953,3.0290985107421875,-3.865380048751831
1714064652712855300,7.286855224609375,-1.5985212326049805,0.9473468661308289,-0.3303951621055603
1714064652722736400,7.296736328125,4.095864295959473,-0.8932210803031921,-0.9967938661575317
1714064652732616200,7.3066162109375,2.8912248611450195,1.9623186588287354,2.265868663787842
1714064652742495500,7.31649560546875,-3.372925281524658,1.2875088453292847,0.775219202041626
1714064652752375600,7.32637548828125,-3.9805917739868164,3.372464418411255,2.41611909866333
1714064652762256600,7.336256591796875,0.5764589309692383,2.3377764225006104,-0.451861172914505
1714064652772136400,7.346136474609375,1.2387275695800781,0.5056639313697815,-6.756865978240967
1714064652782015700,7.356015625,-0.8971042633056641,1.7934385538101196,1.6167834997177124
1714064652791895800,7.365895751953125,0.7147951126098633,2.8322057723999023,2.5128884315490723
1714064652801777000,7.37577685546875,-3.210500717163086,2.462179660797119,1.4298783540725708
1714064652811656700,7.38565673828125,0.7404193878173828,0.16704700887203217,-3.227449893951416
1714064652821536000,7.395535888671875,6.470156669616699,0.6088485717773438,2.4279706478118896
1714064652831416000,7.405416015625,0.21631240844726562,0.9098501801490784,-1.7879083156585693
1714064652841297200,7.415297119140625,-3.5266690254211426,1.9601833820343018,-0.9864950776100159
1714064652851177000,7.425177001953125,0.2458353042602539,1.5042215585708618,0.8259040713310242
1714064652861056300,7.43505615234375,0.32694244384765625,2.830641031265259,2.300717353820801
1714064652870936300,7.444936279296875,-2.7544164657592773,2.8330986499786377,-3.0603814125061035
1714064652880817400,7.4548173828125,3.3757286071777344,1.7546074390411377,0.4897720217704773
1714064652890697200,7.464697265625,0.8558492660522461,1.1906336545944214,1.920577883720398
1714064652900576500,7.474576416015625,-0.17055034637451172,-1.3854581117630005,-3.33441162109375
1714064652910456600,7.48445654296875,3.5976428985595703,0.025489812716841698,-1.1595500707626343
1714064652920337700,7.494337646484375,-3.3251147270202637,3.2442786693573,1.6017268896102905
1714064652930217700,7.5042177734375,-5.157614707946777,1.2714296579360962,2.3601863384246826
1714064652940096800,7.5140966796875,2.5452919006347656,4.758512496948242,-1.5748822689056396
1714064652949976800,7.523976806640625,1.7885637283325195,0.00035193562507629395,-0.10894575715065002
1714064652959858000,7.53385791015625,1.9105768203735352,0.8686227202415466,0.41819703578948975
1714064652969737700,7.54373779296875,1.3444585800170898,0.6870787739753723,-1.2782607078552246
1714064652979617000,7.553616943359375,-2.6900558471679688,0.9397868514060974,0.8549840450286865
1714064652989497000,7.5634970703125,-0.7245988845825195,0.49738559126853943,1.90423583984375
1714064652999378200,7.573378173828125,2.5110015869140625,2.1818065643310547,-1.8211060762405396
1714064653009258000,7.583258056640625,-1.4453258514404297,2.2994635105133057,0.10135385394096375
1714064653019137300,7.59313720703125,-2.31526517868042,3.0493881702423096,2.891904592514038
1714064653029017300,7.603017333984375,2.438600540161133,-0.01541459932923317,-3.5573267936706543
1714064653038898400,7.6128984375,3.697768211364746,-0.5529725551605225,-2.260767698287964
1714064653048778200,7.6227783203125,-0.40983104705810547,0.09512258321046829,1.734970211982727
1714064653058657500,7.632657470703125,-3.3974900245666504,2.8061795234680176,3.423035144805908
1714064653068537600,7.64253759765625,0.0911407470703125,3.398099899291992,-1.1943069696426392
1714064653078418700,7.652418701171875,3.560516357421875,-0.7960099577903748,1.046548843383789
1714064653088298500,7.662298583984375,-1.4537439346313477,2.5738437175750732,-1.8696449995040894
1714064653098177800,7.672177734375,-4.118480682373047,1.0931552648544312,-2.614738702774048
1714064653108057900,7.682057861328125,-0.08006572723388672,1.5736353397369385,0.4815649390220642
1714064653117938700,7.691938720703125,0.14752578735351562,0.8083609342575073,1.8591008186340332
1714064653127818800,7.70181884765625,2.6170644760131836,-0.7604190111160278,-0.21633952856063843
1714064653137698000,7.711697998046875,1.8000669479370117,1.4077383279800415,-0.9798831939697266
1714064653147578000,7.721578125,0.5768527984619141,3.134366035461426,3.863276481628418
1714064653157459000,7.731458984375,-1.2939786911010742,3.565614938735962,0.977776288986206
1714064653167339000,7.741339111328125,-0.7389287948608398,0.37506332993507385,-3.534590005874634
1714064653177218300,7.75121826171875,-0.6175632476806641,1.1049869060516357,0.850593090057373
1714064653187098400,7.761098388671875,-1.8877744674682617,0.21899236738681793,1.0067763328552246
1714064653196979200,7.770979248046875,-1.1818675994873047,2.58367657661438,-0.019893527030944824
1714064653206859300,7.780859375,4.040777206420898,-0.6307087540626526,-1.391805648803711
1714064653216738600,7.790738525390625,4.951725006103516,-0.3061906695365906,1.5074328184127808
1714064653226618600,7.80061865234375,-4.018405914306641,3.870591640472412,-0.5215264558792114
1714064653236499500,7.81049951171875,-4.470371246337891,2.4336907863616943,0.30507850646972656
1714064653246379500,7.820379638671875,1.3005867004394531,1.052182674407959,0.6432569026947021
1714064653256258800,7.8302587890625,0.662785530090332,1.424259901046753,-1.6440292596817017
1714064653266139000,7.840138916015625,4.155479431152344,-1.3322317600250244,0.5743104219436646
1714064653276019700,7.850019775390625,-1.5533876419067383,1.5085784196853638,0.19248813390731812
1714064653285899800,7.859899658203125,-5.346887588500977,4.162354469299316,0.9798296689987183
1714064653295779000,7.869779052734375,-1.6638174057006836,0.6008464097976685,-2.742123603820801
1714064653305659100,7.8796591796875,0.7966814041137695,0.326438844203949,-0.27576112747192383
1714064653315540000,7.8895400390625,1.257563591003418,0.616879403591156,-1.1550557613372803
1714064653325420000,7.899419921875,-3.997377395629883,2.5802910327911377,-0.6862045526504517
1714064653335299300,7.90929931640625,-1.4752445220947266,0.7679837346076965,1.8177367448806763
1714064653345179400,7.919179443359375,8.107315063476562,-0.13904353976249695,-0.34640735387802124
1714064653355060200,7.929060302734375,-1.952113151550293,4.577420234680176,1.6928253173828125
1714064653364940300,7.938940185546875,-8.87057876586914,1.5952962636947632,1.487336277961731
1714064653374819600,7.948819580078125,-0.9363679885864258,1.4719371795654297,0.9681191444396973
1714064653384699600,7.95869970703125,6.44964599609375,2.3022899627685547,-2.5298547744750977
1714064653394580500,7.96858056640625,-0.38228416442871094,-0.6011267304420471,-1.6009374856948853
1714064653404460500,7.97846044921875,-0.7109241485595703,-1.7640925645828247,1.5630208253860474
1714064653414339800,7.98833984375,7.276741027832031,3.6764907836914062,1.7960078716278076
1714064653424220000,7.998219970703125,-5.71377420425415,2.8929953575134277,1.0408109426498413
1714064653434100700,8.008100830078124,-4.355112552642822,1.6711699962615967,-0.3365388512611389
1714064653443980800,8.017980712890624,3.092299461364746,1.1267989873886108,-2.3299546241760254
1714064653453860000,8.027860107421875,1.443985939025879,1.0832159519195557,-1.2787154912948608
1714064653463740200,8.037740234375,-3.4481000900268555,0.41898345947265625,0.8973435163497925
1714064653473621000,8.04762109375,0.19522953033447266,1.5344557762145996,0.7043094038963318
1714064653483501000,8.0575009765625,6.881793975830078,0.7439024448394775,-1.7554748058319092
1714064653493380400,8.06738037109375,-2.202759265899658,1.654366135597229,0.5012388825416565
1714064653503260400,8.077260498046876,-1.8821048736572266,2.557307720184326,0.2630326747894287
1714064653513141200,8.087141357421874,-0.7742195129394531,2.6397640705108643,0.705822765827179
1714064653523021300,8.097021240234374,-4.115638256072998,0.3648066520690918,-0.9769896268844604
1714064653532900400,8.106900390625,-0.8648605346679688,1.4981482028961182,-0.6021908521652222
1714064653542780400,8.116780517578125,4.8424482345581055,1.3818107843399048,0.8448028564453125
1714064653552661500,8.12666162109375,1.7450380325317383,1.4749619960784912,0.09093845635652542
1714064653562541600,8.13654150390625,0.709162712097168,2.1123878955841064,-0.3449949622154236
1714064653572420600,8.146420654296875,-0.23369503021240234,2.310849905014038,1.5765200853347778
1714064653582300700,8.15630078125,-1.3007516860961914,0.48998671770095825,0.933234453201294
1714064653592181800,8.166181640625,-0.7936649322509766,1.8654296398162842,0.9007220268249512
1714064653602061600,8.1760615234375,-1.9092369079589844,0.7548218369483948,-0.27745115756988525
1714064653611940900,8.18594091796875,3.213351249694824,0.8818446397781372,-5.404370307922363
1714064653621821000,8.195821044921875,2.3860092163085938,1.8021620512008667,0.25468504428863525
1714064653631702000,8.205701904296875,-0.3567829132080078,2.145874261856079,2.626279354095459
1714064653641581800,8.215581787109375,-2.8371429443359375,1.4972177743911743,0.9133265018463135
1714064653651461000,8.225461181640625,-4.614137649536133,1.6637403964996338,-0.3022874891757965
1714064653661341200,8.235341064453126,3.361762046813965,0.9530084133148193,0.743431568145752
1714064653671222000,8.245221923828124,6.465218544006348,0.14876189827919006,-1.7748428583145142
1714064653681102000,8.25510205078125,0.0752410888671875,1.853023886680603,0.41202306747436523
1714064653690981400,8.2649814453125,-0.6008453369140625,2.5406200885772705,1.6533839702606201
1714064653700861400,8.274861328125,-0.41291236877441406,0.7588220834732056,0.49329620599746704
1714064653710742300,8.2847421875,-4.003334045410156,1.3726856708526611,1.8075028657913208
1714064653720622300,8.294622314453125,-1.9962167739868164,0.8515751957893372,1.3243942260742188
1714064653730501600,8.304501708984375,1.3524293899536133,1.2853386402130127,-5.720057487487793
1714064653740381700,8.314381591796876,3.039118766784668,1.7640681266784668,-1.5942391157150269
1714064653750262500,8.324262451171874,2.1545867919921875,2.235813617706299,2.1175529956817627
1714064653760142600,8.334142578125,-1.461648941040039,1.687980055809021,1.7387511730194092
1714064653770022000,8.34402197265625,-2.0956215858459473,1.5458202362060547,2.501004457473755
1714064653779902000,8.35390185546875,-1.8183526992797852,1.673147439956665,-0.8447666764259338
1714064653789782800,8.36378271484375,-3.469348907470703,1.8143746852874756,-3.148625612258911
1714064653799662800,8.373662841796875,6.103660583496094,0.9685795307159424,1.0571296215057373
1714064653809542100,8.383542236328125,3.2085580825805664,1.9015141725540161,0.6440070271492004
1714064653819422200,8.393422119140626,-1.6736583709716797,1.6705399751663208,0.11258316785097122
1714064653829303000,8.403302978515624,-0.9555492401123047,2.2921226024627686,2.9899866580963135
1714064653839183000,8.41318310546875,-0.35837459564208984,1.0539312362670898,1.8359390497207642
1714064653849062400,8.4230625,2.733340263366699,-0.6360435485839844,-3.620457887649536
1714064653858942500,8.4329423828125,-2.8972554206848145,4.806874752044678,0.6303079128265381
1714064653868823300,8.4428232421875,-5.699199676513672,1.488696813583374,-3.3356783390045166
1714064653878703000,8.452703125,5.048820495605469,1.2312724590301514,0.49601927399635315
1714064653888582400,8.46258251953125,5.3374481201171875,0.37630388140678406,3.1388418674468994
1714064653898462500,8.47246240234375,-1.4023933410644531,0.3312426805496216,0.3741375803947449
1714064653908343600,8.482343505859374,-1.3202810287475586,1.4849684238433838,-0.6397629976272583
1714064653918223400,8.492223388671874,2.935932159423828,2.4481074810028076,1.333191156387329
1714064653928102700,8.5021025390625,-4.512975692749023,2.183696746826172,-0.9743322730064392
1714064653937982700,8.511982666015625,0.26248645782470703,0.7623324394226074,-0.16727639734745026
1714064653947863800,8.52186376953125,2.411378860473633,1.3121885061264038,1.879107117652893
1714064653957743600,8.53174365234375,-1.095290184020996,0.18975907564163208,-0.024412527680397034
1714064653967623000,8.541622802734375,1.3697786331176758,1.1064667701721191,-1.7946021556854248
1714064653977503000,8.5515029296875,0.17948341369628906,3.621453285217285,1.2704540491104126
1714064653987383800,8.5613837890625,-5.314329147338867,1.1525087356567383,-0.3012867569923401
1714064653997264000,8.571263916015624,2.3954591751098633,0.40761953592300415,-0.526829183101654
1714064654007143200,8.58114306640625,3.966153144836426,1.1319917440414429,4.285557746887207
1714064654017023200,8.591023193359375,-2.8108177185058594,0.23667261004447937,-0.46516814827919006
1714064654026904000,8.600904052734375,1.2578716278076172,3.292595624923706,-3.3782997131347656
1714064654036784000,8.6107841796875,-2.216076374053955,2.757395029067993,0.2582494616508484
1714064654046663400,8.620663330078125,-1.4657516479492188,-0.17206299304962158,0.37915682792663574
1714064654056543500,8.63054345703125,1.8814172744750977,0.29592812061309814,-0.6187331676483154
1714064654066424300,8.64042431640625,2.5864715576171875,0.9997224807739258,2.761129856109619
1714064654076304400,8.650304443359374,-2.998129367828369,0.5027084946632385,0.9273034930229187
1714064654086183400,8.660183349609374,2.6000614166259766,2.812237501144409,-1.9678758382797241
1714064654096063500,8.6700634765625,-1.7705087661743164,2.8239340782165527,-0.3169444501399994
1714064654105944600,8.679944580078125,-2.3994569778442383,1.4883626699447632,1.9714019298553467
1714064654115824600,8.68982470703125,1.4355964660644531,3.442949056625366,3.1409244537353516
1714064654125703700,8.69970361328125,1.4304895401000977,-0.7641603946685791,-0.2833033800125122
1714064654135583700,8.709583740234375,0.01332855224609375,-0.763195276260376,-1.5388152599334717
1714064654145464800,8.71946484375,3.934647560119629,2.069509267807007,-1.8556715250015259
1714064654155344600,8.7293447265625,-2.4183239936828613,2.7465343475341797,2.2818877696990967
1714064654165224000,8.739223876953124,-2.252200126647949,1.7214816808700562,1.0817697048187256
1714064654175104000,8.74910400390625,0.43591785430908203,0.580828070640564,-1.4106152057647705
1714064654184984800,8.75898486328125,1.6985836029052734,0.7979236245155334,-0.4847211241722107
1714064654194865000,8.768864990234375,-4.551634788513184,1.5176666975021362,-3.0708045959472656
1714064654204744200,8.778744140625,3.0507993698120117,2.9013619422912598,0.46402186155319214
1714064654214624300,8.788624267578125,0.6909055709838867,1.1597234010696411,3.3370540142059326
1714064654224505000,8.798505126953126,-1.4168663024902344,1.7214394807815552,0.8428211808204651
1714064654234385200,8.80838525390625,-0.3221158981323242,0.7811052203178406,0.0022123903036117554
1714064654244264400,8.818264404296874,3.406622886657715,-0.5374901294708252,1.3892322778701782
1714064654254144500,8.82814453125,1.5745735168457031,0.35358431935310364,0.10962557792663574
1714064654264025300,8.838025390625,-4.681649684906006,2.4290738105773926,-0.746845543384552
1714064654273905400,8.847905517578125,-2.975285053253174,2.5321385860443115,0.8473171591758728
1714064654283784700,8.85778466796875,-2.5362963676452637,2.8911778926849365,-1.693943738937378
1714064654293664500,8.86766455078125,-2.4715752601623535,1.606284499168396,-3.2107431888580322
1714064654303545600,8.877545654296876,0.6432704925537109,0.48183608055114746,0.013586856424808502
1714064654313425400,8.88742529296875,5.0073089599609375,-2.323517084121704,0.8062542080879211
1714064654323304700,8.8973046875,8.40858268737793,2.251899242401123,1.4152635335922241
1714064654333184800,8.907184814453124,-5.508118629455566,1.2504626512527466,3.0641531944274902
1714064654343065600,8.917065673828125,-5.535303115844727,1.5805044174194336,2.198476791381836
1714064654352945700,8.926945556640625,0.02568531036376953,5.139728546142578,-1.0769575834274292
1714064654362825000,8.936824951171875,-5.327195167541504,-0.06698127090930939,-0.28694331645965576
1714064654372705000,8.946705078125,1.312739372253418,0.5495560169219971,-1.4727442264556885
1714064654382585900,8.9565859375,5.637346267700195,1.2197526693344116,-2.660168409347534
1714064654392466000,8.9664658203125,1.824850082397461,-1.5207866430282593,-0.9691274166107178
1714064654402345200,8.97634521484375,-3.4928078651428223,2.935429334640503,3.0301687717437744
1714064654412225300,8.986225341796874,-1.595271110534668,2.8537049293518066,1.17978835105896
1714064654422106000,8.996106201171875,-1.0237550735473633,4.166125774383545,4.609123229980469
1714064654431986200,9.005986083984375,-1.7894001007080078,2.553220510482788,-4.996093273162842
1714064654441865500,9.015865478515625,1.4502382278442383,0.2675093412399292,-0.15703986585140228
1714064654451745500,9.02574560546875,6.342398643493652,-1.326842188835144,0.3985022306442261
1714064654461626400,9.03562646484375,5.790656089782715,-0.053126707673072815,1.7091408967971802
1714064654471506200,9.045506103515624,-3.9113516807556152,1.4301587343215942,0.8844560980796814
1714064654481385500,9.055385498046874,-6.0293965339660645,0.7156205177307129,4.326539993286133
1714064654491265500,9.065265625,3.3732242584228516,5.663059234619141,0.438009649515152
1714064654501146600,9.075146728515625,-6.323637008666992,1.5019512176513672,3.456744909286499
1714064654511026400,9.0850263671875,-0.6104049682617188,-0.12626616656780243,4.847300052642822
1714064654520905700,9.09490576171875,9.772660255432129,-0.5113373398780823,1.759350299835205
1714064654530785800,9.104785888671875,3.886220932006836,-1.5774602890014648,-3.004518747329712
1714064654540666600,9.11466650390625,-6.765010833740234,-0.6238102316856384,3.628661632537842
1714064654550546700,9.124546630859374,2.102431297302246,3.102144241333008,3.256199359893799
1714064654560426000,9.134426025390624,-1.6666717529296875,3.3604118824005127,2.3274922370910645
1714064654570306000,9.14430615234375,-4.61250638961792,-0.17374926805496216,1.0018178224563599
1714064654580187000,9.154186767578125,2.1882925033569336,0.7607427835464478,2.4165525436401367
1714064654590067000,9.16406689453125,4.236978530883789,0.9938943386077881,0.8918921947479248
1714064654599946000,9.173946044921875,-1.4662714004516602,-2.1953883171081543,1.4885759353637695
1714064654609826000,9.183825927734375,0.8375425338745117,1.1685309410095215,5.0854010581970215
1714064654619707100,9.19370703125,-0.2536277770996094,3.0815062522888184,4.2092437744140625
1714064654629587000,9.2035869140625,-1.8557472229003906,1.571581244468689,-1.1418609619140625
1714064654639466200,9.21346630859375,-1.6554975509643555,0.985535204410553,0.6581671237945557
1714064654649346300,9.22334619140625,0.13709163665771484,0.059040576219558716,3.6890883445739746
1714064654659227100,9.23322705078125,0.6597681045532227,1.2676494121551514,1.8457986116409302
1714064654669107200,9.243107177734375,-0.7435531616210938,-0.48506098985671997,1.978275179862976
1714064654678986500,9.252986572265625,4.242757797241211,-0.5224639177322388,2.3986284732818604
1714064654688866600,9.262866455078125,2.640474319458008,0.1888572871685028,2.715860366821289
1714064654698747400,9.272747314453126,-2.822286605834961,2.23407244682312,1.8347783088684082
1714064654708627500,9.28262744140625,-5.9850993156433105,1.3348205089569092,2.624476194381714
1714064654718506500,9.292506591796876,1.112335205078125,0.7605156302452087,1.9084302186965942
1714064654728386600,9.302386474609374,3.139327049255371,2.2810449600219727,-0.5407456755638123
1714064654738267600,9.312267578125,-3.2669777870178223,-1.2692598104476929,2.1635093688964844
1714064654748147700,9.322147705078125,1.2136344909667969,1.4080778360366821,3.8366286754608154
1714064654758026800,9.33202685546875,3.3622922897338867,-0.5354661345481873,1.1752099990844727
1714064654767906800,9.34190673828125,0.6393938064575195,-0.89403235912323,0.3413756787776947
1714064654777787600,9.35178759765625,1.2644071578979492,-0.6913025975227356,3.669360876083374
1714064654787667700,9.361667724609376,-1.3698663711547852,1.3487781286239624,3.689255952835083
1714064654797547000,9.371547119140626,-3.033564567565918,2.127674102783203,2.7103514671325684
1714064654807427000,9.381427001953124,-0.9270391464233398,1.7873016595840454,-0.1793341189622879
1714064654817308000,9.391307861328125,-1.7660140991210938,0.8151209354400635,0.4949665665626526
1714064654827188000,9.40118798828125,1.6883840560913086,0.10279865562915802,2.626154899597168
1714064654837067000,9.41106689453125,2.899052619934082,1.4495619535446167,4.0507330894470215
1714064654846947000,9.420947021484375,-3.9151244163513184,0.9084100127220154,-0.5726207494735718
1714064654856828200,9.430828125,-0.32831668853759766,-0.8100450038909912,0.9843971133232117
1714064654866708000,9.4407080078125,4.129131317138672,-1.7191492319107056,0.9982801079750061
1714064654876587300,9.450587158203126,5.152037620544434,-1.6938542127609253,1.629652738571167
1714064654886467300,9.46046728515625,-1.6247539520263672,0.972253680229187,3.603468179702759
1714064654896348200,9.47034814453125,-5.454092979431152,0.5421738624572754,4.3864970207214355
1714064654906228200,9.480228271484375,-1.369431495666504,2.238016366958618,4.21419095993042
1714064654916107500,9.490107421875,2.736994743347168,-0.2360440492630005,0.3558242619037628
1714064654925987600,9.499987548828125,0.6196203231811523,0.6669389009475708,-0.1941802054643631
1714064654935868400,9.509868408203126,-1.1127872467041016,0.6656777262687683,1.7958556413650513
1714064654945748500,9.51974853515625,0.6231269836425781,1.154516577720642,6.283365726470947
1714064654955627800,9.529627685546876,-2.281498908996582,2.4395394325256348,5.8654303550720215
1714064654965507600,9.539507568359374,-0.6314268112182617,0.6295822858810425,-2.7429206371307373
1714064654975388700,9.549388671875,0.3612785339355469,-1.562853217124939,-3.6887221336364746
1714064654985268500,9.5592685546875,1.662008285522461,-0.8544814586639404,3.2211763858795166
1714064654995147800,9.569147705078125,-1.5499420166015625,0.714760959148407,5.326938629150391
1714064655005027800,9.57902783203125,1.4794530868530273,-0.9178823232650757,1.0749907493591309
1714064655014908700,9.58890869140625,4.652758598327637,-0.2584693431854248,0.20793814957141876
1714064655024788700,9.598788818359376,-1.4095220565795898,0.42498549818992615,1.946475625038147
1714064655034668000,9.60866796875,-3.3833956718444824,-0.08336138725280762,4.163902282714844
1714064655044548000,9.618548095703124,1.2821025848388672,1.3608158826828003,2.8792672157287598
1714064655054429000,9.628428955078125,-4.090507984161377,2.164630174636841,-1.7655115127563477
1714064655064309000,9.63830908203125,-0.5464086532592773,0.183742955327034,-0.5318695306777954
1714064655074188000,9.64818798828125,1.9434318542480469,-0.3106071352958679,1.6752657890319824
1714064655084068000,9.658068115234375,2.6929855346679688,0.14180786907672882,6.517573356628418
1714064655093949200,9.66794921875,-2.6687498092651367,0.4610315263271332,2.948974609375
1714064655103829000,9.6778291015625,-1.000596046447754,0.14967139065265656,-1.6772794723510742
1714064655113708300,9.687708251953126,3.286351203918457,0.7710593938827515,1.3600504398345947
1714064655123588400,9.69758837890625,0.43171215057373047,-1.3836334943771362,1.337558627128601
1714064655133469200,9.70746923828125,-0.33080577850341797,-0.7183611392974854,2.436846971511841
1714064655143349200,9.717349365234375,1.2179136276245117,0.5198836922645569,3.5021963119506836
1714064655153228500,9.727228515625,-2.3673548698425293,0.32487356662750244,1.6200324296951294
1714064655163108600,9.737108642578125,-0.4225320816040039,1.4160380363464355,2.6541748046875
1714064655172989400,9.746989501953125,0.06074237823486328,-0.047254279255867004,-0.31304696202278137
1714064655182869200,9.756869140625,-1.266754150390625,-0.3511609435081482,1.5094261169433594
1714064655192748500,9.76674853515625,1.1507482528686523,-0.8601853847503662,4.4503350257873535
1714064655202628600,9.776628662109376,1.381439208984375,0.5136123299598694,4.435288429260254
1714064655212509400,9.786509521484374,-2.6250319480895996,0.943789005279541,-4.877744674682617
1714064655222389500,9.796389404296875,1.1476335525512695,0.37420380115509033,1.8369206190109253
1714064655232268800,9.806268798828125,1.6820497512817383,0.10269622504711151,2.087324380874634
1714064655242148900,9.81614892578125,-0.7172527313232422,-0.17526018619537354,1.5507208108901978
1714064655252029700,9.82602978515625,-5.02833890914917,-0.8878625631332397,1.0816572904586792
1714064655261909500,9.835909423828125,2.2608489990234375,0.42267677187919617,2.9852263927459717
1714064655271788800,9.845788818359376,2.967103958129883,0.4098421335220337,2.240834951400757
1714064655281668900,9.8556689453125,-0.6419353485107422,-0.21709884703159332,2.9660208225250244
1714064655291549700,9.8655498046875,2.8269214630126953,-2.1689469814300537,2.0948333740234375
1714064655301429800,9.8754296875,4.364095687866211,0.4412609934806824,-0.7004226446151733
1714064655311309000,9.88530908203125,-6.879849433898926,0.6745337247848511,2.544393539428711
1714064655321189000,9.895189208984375,-6.508148193359375,-0.2351585030555725,3.264347791671753
1714064655331070000,9.905070068359375,3.215372085571289,2.0352048873901367,1.7073943614959717
1714064655340950000,9.914949951171875,1.4281396865844727,-0.8473426103591919,-2.897862434387207
1714064655350829000,9.9248291015625,-0.25141143798828125,-1.4173506498336792,-0.3322921693325043
1714064655360709000,9.934709228515626,2.7971372604370117,0.2435666024684906,2.856240749359131
1714064655370590200,9.944590087890624,-1.0045881271362305,0.8468732833862305,2.0277607440948486
1714064655380470000,9.954469970703125,-4.42496395111084,0.050705984234809875,2.605276107788086
1714064655390349300,9.964349365234375,0.3453941345214844,0.5093472003936768,2.821375846862793
1714064655400229400,9.9742294921875,3.066751480102539,-0.5226006507873535,2.3323895931243896
1714064655410110200,9.984110107421875,1.1676130294799805,-0.7763444185256958,1.4086581468582153
1714064655419990300,9.993990234375,0.6177139282226562,-1.2153421640396118,1.4973632097244263
1714064655429869300,10.003869384765625,-2.0273852348327637,2.2690508365631104,1.518702745437622
1714064655439749400,10.013749267578126,-3.3149685859680176,0.21996381878852844,1.116609811782837
1714064655449630500,10.02363037109375,2.302884101867676,-1.3490389585494995,-0.15803247690200806
1714064655459510300,10.03351025390625,2.1361169815063477,-1.106198787689209,0.8596770763397217
1714064655469389600,10.0433896484375,1.7052860260009766,-3.4104063510894775,0.5667805671691895
1714064655479269600,10.05326953125,-0.4450054168701172,0.04619303345680237,4.911362171173096
1714064655489150500,10.063150390625,-2.747419834136963,0.9907928705215454,4.176909923553467
1714064655499030500,10.073030517578125,-1.3324651718139648,1.8107988834381104,-0.41691818833351135
1714064655508909600,10.08290966796875,-0.8124046325683594,0.0850968211889267,-0.8686984777450562
1714064655518789600,10.09278955078125,2.326188087463379,-1.2380908727645874,1.1961629390716553
1714064655528670700,10.102670654296874,1.8564929962158203,0.3002970218658447,3.154514789581299
1714064655538550500,10.112550537109374,-1.6776771545410156,0.010478243231773376,-0.3274264335632324
1714064655548429800,10.122429931640625,-3.4494171142578125,-0.29923057556152344,0.4624519348144531
1714064655558310000,10.132309814453125,2.3288755416870117,-0.06080205738544464,3.176056146621704
1714064655568190700,10.142190673828125,1.250197410583496,-0.7883751392364502,2.904531717300415
1714064655578070800,10.15207080078125,-1.559234619140625,0.04569047689437866,0.0800432562828064
1714064655587949800,10.16194970703125,-0.6068668365478516,1.4163531064987183,-0.3335779905319214
1714064655597830000,10.171829833984376,0.16896438598632812,-0.12778721749782562,1.4454576969146729
1714064655607710700,10.181710693359374,1.3092937469482422,-0.570858359336853,2.0942935943603516
1714064655617590800,10.1915908203125,0.7058897018432617,-0.016206219792366028,0.5104022026062012
1714064655627470000,10.201469970703124,-3.876187801361084,-0.12995588779449463,0.2739415168762207
1714064655637350100,10.21135009765625,1.1987133026123047,0.196318581700325,1.5624701976776123
1714064655647231000,10.22123095703125,1.8094120025634766,-1.0758463144302368,1.424034595489502
1714064655657111000,10.231111083984375,2.0186033248901367,-2.027940511703491,1.7696295976638794
1714064655666990000,10.240989990234375,-1.470022201538086,-0.15863363444805145,2.5921096801757812
1714064655676870100,10.2508701171875,-3.235029697418213,-0.058228716254234314,1.3096280097961426
1714064655686751000,10.2607509765625,0.9255733489990234,0.18694038689136505,0.6468105316162109
1714064655696631000,10.270631103515624,2.2690553665161133,-1.2709530591964722,0.8130544424057007
1714064655706510300,10.28051025390625,0.5566921234130859,-0.24022547900676727,2.7652101516723633
1714064655716390400,10.290390380859375,-1.8721809387207031,0.25395846366882324,1.978978157043457
1714064655726271200,10.300271240234375,-0.25399208068847656,0.28859537839889526,0.8429009914398193
1714064655736151300,10.3101513671875,-0.8024272918701172,-0.08702230453491211,-0.5152677297592163
1714064655746030300,10.3200302734375,-0.4968137741088867,-0.04480016231536865,0.24332690238952637
1714064655755910400,10.329910400390625,1.6681671142578125,-0.8046212196350098,1.002089023590088
1714064655765791200,10.339791259765626,2.642728805541992,-1.637650966644287,2.7286391258239746
1714064655775671300,10.34967138671875,-0.0962982177734375,-1.043574333190918,2.1056394577026367
1714064655785550600,10.359550537109374,-0.3608245849609375,-0.3829731047153473,0.8122236728668213
1714064655795430700,10.3694306640625,-1.6513261795043945,0.3771299123764038,1.414444923400879
1714064655805311500,10.3793115234375,-1.7813777923583984,0.012660175561904907,1.3040968179702759
1714064655815191600,10.389191650390625,1.2581663131713867,0.16788528859615326,1.400269627571106
1714064655825070600,10.399070556640625,0.13994884490966797,0.021237581968307495,1.8785873651504517
1714064655834950700,10.40895068359375,0.5956897735595703,-0.18634861707687378,0.9267914295196533
1714064655844831500,10.41883154296875,-0.6833219528198242,-0.12914340198040009,0.48718738555908203
1714064655854711600,10.428711669921874,-1.118844985961914,-0.743973433971405,0.9645828008651733
1714064655864590800,10.4385908203125,1.6203680038452148,-0.30603545904159546,1.0365822315216064
1714064655874470700,10.448470703125,-1.0749874114990234,-0.4117162823677063,0.36940279603004456
1714064655884351700,10.458351806640625,0.012163162231445312,-0.22803816199302673,1.489675521850586
1714064655894231600,10.4682314453125,1.0318002700805664,-0.6428234577178955,1.4074329137802124
1714064655904110800,10.47811083984375,-0.5086593627929688,-0.7038043737411499,1.0421226024627686
1714064655913991000,10.487990966796875,-0.34261417388916016,-0.056171759963035583,1.2672324180603027
1714064655923871700,10.497871826171876,-0.2628908157348633,-0.21123209595680237,1.1861960887908936
1714064655933751800,10.507751708984374,0.2990760803222656,-0.4353637099266052,1.4877904653549194
1714064655943631000,10.517631103515624,0.22176265716552734,-0.21650820970535278,1.0253043174743652
1714064655953511000,10.527510986328124,-0.6695890426635742,-0.18133726716041565,0.6562356948852539
1714064655963392000,10.53739208984375,0.3614654541015625,-0.4324083924293518,0.8817764520645142
1714064655973271800,10.547271728515625,0.38674068450927734,-0.5355676412582397,1.079599380493164
1714064655983151000,10.557151123046875,-0.20197772979736328,-0.33727890253067017,1.3132964372634888
1714064655993031200,10.56703125,-0.3711681365966797,-0.560512900352478,0.5883305072784424
1714064656002912000,10.576912109375,0.6206388473510742,-0.507440984249115,0.6299629211425781
1714064656012792000,10.5867919921875,-0.6992721557617188,-0.5015983581542969,0.8546712398529053
1714064656022671000,10.596671142578124,0.04753875732421875,-0.25540950894355774,1.4830479621887207
1714064656032551200,10.60655126953125,0.6228761672973633,0.14400526881217957,2.196404457092285
1714064656042432300,10.616432373046875,-0.1959981918334961,0.3512515723705292,2.3983957767486572
1714064656052312000,10.62631201171875,-0.31778621673583984,0.1422802358865738,0.23720327019691467
1714064656062191400,10.63619140625,-0.4454660415649414,-0.34022149443626404,0.1750669777393341
1714064656072071400,10.646071533203125,-0.2505960464477539,-0.489199697971344,2.1791369915008545
1714064656081952300,10.6559521484375,0.46329402923583984,-0.6488193869590759,2.8311147689819336
1714064656091832000,10.66583203125,0.37067699432373047,-0.7201318740844727,0.27659428119659424
1714064656101711400,10.67571142578125,-0.413177490234375,-0.3776819109916687,-0.6697937250137329
1714064656111591400,10.68559130859375,0.03711128234863281,-0.5360664129257202,0.6214876770973206
1714064656121472300,10.69547216796875,0.5381631851196289,-0.3670803904533386,0.1620805263519287
1714064656131352300,10.705352294921875,-0.6596899032592773,-0.3799925446510315,-0.1379130482673645
1714064656141231600,10.715231689453125,0.22801971435546875,-0.22874946892261505,-0.18932239711284637
1714064656151111700,10.725111572265625,0.17491912841796875,-0.3995826840400696,-0.2718673050403595
1714064656160992500,10.734992431640626,-0.11926078796386719,-0.22481630742549896,-0.10367774963378906
1714064656170872300,10.744872314453126,-0.152435302734375,-0.2997785210609436,-0.3918039798736572
1714064656180751600,10.754751708984376,0.2109689712524414,-0.34994977712631226,-0.37450307607650757
1714064656190631700,10.764631591796874,-0.07137584686279297,-0.3299024999141693,-0.27042829990386963
1714064656200512500,10.774512451171875,-0.025831222534179688,-0.2977389097213745,-0.3054793179035187
1714064656210392600,10.784392578125,0.09603404998779297,-0.33550816774368286,-0.3119078576564789
1714064656220271600,10.794271728515625,-0.07137012481689453,-0.2817121744155884,-0.1896030157804489
1714064656230151700,10.804151611328125,0.0004444122314453125,-0.3115241825580597,-0.041089773178100586
1714064656240032800,10.81403271484375,0.09117603302001953,-0.3610692024230957,-0.1050163209438324
1714064656249912600,10.82391259765625,-0.016534805297851562,-0.3504312038421631,-0.12352737784385681
1714064656259792000,10.8337919921875,0.0049896240234375,-0.3423382639884949,-0.2209162414073944
1714064656269672000,10.843671875,0.031246185302734375,-0.33210840821266174,-0.2704237997531891
1714064656279552800,10.853552734375,-0.033313751220703125,-0.28799867630004883,-0.15753230452537537
1714064656289432800,10.863432861328125,0.009745597839355469,-0.29892587661743164,-0.10211730003356934
1714064656299311900,10.873311767578125,0.04791736602783203,-0.3219972550868988,-0.142128586769104
1714064656309192000,10.88319189453125,-0.00475311279296875,-0.323402464389801,-0.14394840598106384
1714064656319072800,10.89307275390625,0.02630138397216797,-0.3298261761665344,-0.19364438951015472
1714064656328952800,10.902952880859376,0.01668071746826172,-0.30757153034210205,-0.1835152953863144
1714064656338832100,10.91283203125,-0.007250785827636719,-0.29695674777030945,-0.10893049836158752
1714064656348712000,10.9227119140625,0.02618885040283203,-0.32947495579719543,-0.1108313798904419
1714064656358593000,10.932593017578125,0.009394645690917969,-0.333249568939209,-0.16049166023731232
1714064656368472800,10.942472900390625,0.01413726806640625,-0.3274623155593872,-0.18614670634269714
1714064656378352000,10.95235205078125,0.02604198455810547,-0.31464558839797974,-0.19048546254634857
1714064656388232200,10.962232177734375,0.011643409729003906,-0.30185607075691223,-0.16364933550357819
1714064656398113000,10.972113037109375,0.021155357360839844,-0.28659483790397644,-0.12242928147315979
1714064656407993000,10.9819931640625,0.02348041534423828,-0.2953733205795288,-0.1362389326095581
1714064656417872100,10.9918720703125,0.011474609375,-0.30400943756103516,-0.15729881823062897
1714064656427752200,11.001752197265626,0.02576732635498047,-0.32934558391571045,-0.1544230729341507
1714064656437633000,11.011633056640624,0.018533706665039062,-0.3189122676849365,-0.1420038938522339
1714064656447513000,11.02151318359375,0.0017633438110351562,-0.3012202978134155,-0.13678011298179626
1714064656457392400,11.031392333984375,0.006524085998535156,-0.3074536621570587,-0.13383707404136658
1714064656467272200,11.041272216796875,0.02082538604736328,-0.31844767928123474,-0.1571706235408783
1714064656477153300,11.0511533203125,0.015987396240234375,-0.31042972207069397,-0.1804458200931549
1714064656487033000,11.061033203125,0.004000663757324219,-0.31437239050865173,-0.16318538784980774
1714064656496912400,11.070912353515626,0.027862548828125,-0.29442405700683594,-0.14345955848693848
1714064656506792400,11.08079248046875,0.023008346557617188,-0.28646618127822876,-0.12855923175811768
1714064656516673300,11.09067333984375,0.0038356781005859375,-0.288080632686615,-0.13996541500091553
1714064656526553300,11.10055322265625,0.010984420776367188,-0.2991231083869934,-0.14907537400722504
1714064656536432400,11.110432373046875,0.0225677490234375,-0.30585676431655884,-0.1417894959449768
1714064656546312400,11.1203125,0.015124320983886719,-0.31011927127838135,-0.12520989775657654
1714064656556193300,11.130193359375,0.021924972534179688,-0.30253976583480835,-0.13703826069831848
1714064656566073300,11.1400732421875,0.00036334991455078125,-0.288023978471756,-0.1368984580039978
1714064656575952600,11.14995263671875,0.009763717651367188,-0.26892298460006714,-0.15088622272014618
1714064656585832700,11.159832763671876,0.004886627197265625,-0.2619113326072693,-0.14828018844127655
1714064656595713500,11.169713623046874,0.01892566680908203,-0.2550165057182312,-0.13865499198436737
1714064656605593300,11.17959326171875,0.020956039428710938,-0.25777214765548706,-0.11730051040649414
1714064656615472600,11.18947265625,0.008830070495605469,-0.24152955412864685,-0.12467101216316223
1714064656625352700,11.199352783203125,0.018095970153808594,-0.25628095865249634,-0.11073091626167297
1714064656635233500,11.209233642578125,0.017790794372558594,-0.2590155601501465,-0.12291927635669708
1714064656645113600,11.219113525390625,0.0010099411010742188,-0.25699615478515625,-0.11607098579406738
1714064656654992600,11.22899267578125,0.015114784240722656,-0.2550104260444641,-0.10698261857032776
1714064656664872700,11.238872802734376,0.024275779724121094,-0.2436409890651703,-0.11923350393772125
1714064656674753500,11.24875341796875,0.016800880432128906,-0.24423202872276306,-0.12174461781978607
1714064656684633600,11.258633544921874,0.011803627014160156,-0.21656280755996704,-0.11479710042476654
1714064656694513000,11.268512939453124,0.009248733520507812,-0.19865283370018005,-0.10572993755340576
1714064656704392700,11.278392822265625,0.018502235412597656,-0.2069374918937683,-0.11082024872303009
1714064656714273800,11.288273681640625,0.008769035339355469,-0.21037565171718597,-0.09463796019554138
1714064656724153600,11.298153564453125,0.022739410400390625,-0.20916688442230225,-0.08814218640327454
1714064656734033000,11.308032958984375,0.017648696899414062,-0.2173950970172882,-0.10541538894176483
1714064656743913000,11.317912841796876,0.01264190673828125,-0.20900675654411316,-0.0965045690536499
1714064656753793800,11.327793701171874,0.007716178894042969,-0.21488341689109802,-0.09233182668685913
1714064656763673900,11.337673828125,0.017000198364257812,-0.2088911384344101,-0.10718102753162384
1714064656773553000,11.347552978515624,-0.009182929992675781,-0.18887357413768768,-0.10530336201190948
1714064656783433000,11.357432861328125,0.02627849578857422,-0.17860639095306396,-0.10345698893070221
1714064656793313800,11.367313720703125,0.009358406066894531,-0.1708645522594452,-0.09222455322742462
1714064656803193900,11.37719384765625,0.01861095428466797,-0.17961229383945465,-0.08812317252159119
1714064656813073200,11.3870732421875,-0.007597923278808594,-0.16950349509716034,-0.07714605331420898
1714064656822953000,11.396952880859375,0.009000778198242188,-0.1831011176109314,-0.07329592108726501
1714064656832834000,11.406833984375,0.011200904846191406,-0.18693651258945465,-0.0743371844291687
1714064656842713900,11.4167138671875,0.01807403564453125,-0.1814100295305252,-0.08006948232650757
1714064656852593200,11.42659326171875,0.010707855224609375,-0.17597565054893494,-0.07864364981651306
1714064656862473200,11.43647314453125,0.0034637451171875,-0.16580462455749512,-0.09136675298213959
1714064656872354000,11.44635400390625,-0.0060138702392578125,-0.1724052131175995,-0.09446088969707489
1714064656882233900,11.45623388671875,0.015272140502929688,-0.15299572050571442,-0.08102421462535858
1714064656892113200,11.466113037109375,0.017368316650390625,-0.14803488552570343,-0.07251989841461182
1714064656901993200,11.4759931640625,0.007663726806640625,-0.14068374037742615,-0.057213544845581055
1714064656911874000,11.4858740234375,0.00047016143798828125,-0.14063651859760284,-0.05852285027503967
1714064656921754000,11.495754150390624,0.02164745330810547,-0.15459643304347992,-0.06922709941864014
1714064656931633200,11.505633056640624,0.0024499893188476562,-0.15655271708965302,-0.06327357888221741
1714064656941513200,11.51551318359375,0.0000514984130859375,-0.17024736106395721,-0.06683605909347534
1714064656951394000,11.52539404296875,0.011816024780273438,-0.160171777009964,-0.07022027671337128
1714064656961274000,11.535274169921875,0.009261131286621094,-0.15026411414146423,-0.0689585953950882
1714064656971153400,11.5451533203125,0.009103775024414062,-0.1312236487865448,-0.06771795451641083
1714064656981033200,11.555033203125,0.00894927978515625,-0.12415638566017151,-0.07591502368450165
1714064656990914300,11.564914306640626,0.011152267456054688,-0.12203040719032288,-0.05807900428771973
1714064657000794000,11.574794189453126,0.01096343994140625,-0.12229779362678528,-0.05466580390930176
1714064657010673400,11.58467333984375,-0.005702972412109375,-0.12491118907928467,-0.04660075902938843
1714064657020553500,11.594553466796874,0.008516311645507812,-0.1273621916770935,-0.045732736587524414
1714064657030434300,11.604434326171875,0.013081550598144531,-0.1274181306362152,-0.05900430679321289
1714064657040314400,11.614314453125,0.005799293518066406,-0.1298273503780365,-0.05322113633155823
1714064657050193400,11.624193359375,0.015115737915039062,-0.1346694678068161,-0.0616595596075058
1714064657060073500,11.634073486328125,0.0030908584594726562,-0.12060092389583588,-0.06524933874607086
1714064657069954300,11.643954345703126,0.0006818771362304688,-0.10676684975624084,-0.06407095491886139
1714064657079834400,11.65383447265625,0.01714611053466797,-0.10257648676633835,-0.05114075541496277
1714064657089713700,11.663713623046876,0.012149810791015625,-0.0961017906665802,-0.052551209926605225
1714064657099593500,11.673593505859374,0.007232666015625,-0.10374133288860321,-0.04440253973007202
1714064657109474300,11.683474365234375,0.009461402893066406,-0.11360413581132889,-0.048160046339035034
1714064657119354400,11.693354248046875,0.009302139282226562,-0.11389292776584625,-0.04962077736854553
1714064657129233700,11.703233642578125,0.009143829345703125,-0.1166464164853096,-0.039285629987716675
1714064657139113500,11.713113525390625,-0.0051403045654296875,-0.11229139566421509,-0.05254580080509186
1714064657148994600,11.72299462890625,0.006711006164550781,-0.10094636678695679,-0.058522358536720276
1714064657158874400,11.732874267578126,-0.005177497863769531,-0.09920722246170044,-0.04556575417518616
1714064657168753700,11.742753662109376,0.009032249450683594,-0.09031563997268677,-0.06354855000972748
1714064657178633700,11.7526337890625,0.01358795166015625,-0.08863481134176254,-0.04121026396751404
1714064657188514600,11.7625146484375,0.020418167114257812,-0.0894550308585167,-0.040313154458999634
1714064657198394400,11.772394287109375,0.003597259521484375,-0.07849062979221344,-0.030133098363876343
1714064657208273700,11.782273681640625,0.0035314559936523438,-0.09360511600971222,-0.0317748486995697
1714064657218153700,11.79215380859375,0.010533332824707031,-0.08963412791490555,-0.0358622670173645
1714064657228034600,11.80203466796875,0.015063285827636719,-0.10456289350986481,-0.030464768409729004
1714064657237914600,11.81191455078125,-0.0040264129638671875,-0.10747186839580536,-0.0438719242811203
1714064657247793700,11.821793701171876,0.005452156066894531,-0.08914458006620407,-0.0405762642621994
1714064657257673700,11.831673828125,0.005359649658203125,-0.0781853199005127,-0.03745439648628235
1714064657267554600,11.841554443359374,0.012331008911132812,-0.06741215288639069,-0.043802231550216675
1714064657277434600,11.8514345703125,0.0027074813842773438,-0.073294498026371,-0.03827236592769623
1714064657287314000,11.86131396484375,-0.0020475387573242188,-0.06483474373817444,-0.030480504035949707
1714064657297193700,11.87119384765625,0.000339508056640625,-0.0613432452082634,-0.03694362938404083
1714064657307074600,11.881074462890625,0.012102127075195312,-0.08616030961275101,-0.026819705963134766
1714064657316954600,11.89095458984375,0.0024785995483398438,-0.08702179789543152,-0.026162415742874146
1714064657326834000,11.900833984375,0.009493827819824219,-0.08316051214933395,-0.030224472284317017
1714064657336713700,11.910713623046876,0.0046253204345703125,-0.08878038823604584,-0.04846285283565521
1714064657346594800,11.9205947265625,0.0021924972534179688,-0.07782720774412155,-0.04520949721336365
1714064657356474600,11.930474609375,-0.00726318359375,-0.0717649757862091,-0.04671876132488251
1714064657366354000,11.94035400390625,0.006981849670410156,-0.03990764915943146,-0.03878612816333771
1714064657376234000,11.95023388671875,0.013925552368164062,-0.04860258102416992,-0.02392306923866272
1714064657386114800,11.96011474609375,0.0042724609375,-0.06645046919584274,-0.013897240161895752
1714064657395994600,11.96999462890625,0.011261940002441406,-0.06528954207897186,-0.01357528567314148
1714064657405874000,11.9798740234375,-0.000698089599609375,-0.07120726257562637,-0.022674381732940674
1714064657415754000,11.98975390625,0.004019737243652344,-0.08644313365221024,-0.02455925941467285
1714064657425634800,11.999634765625,-0.0007600784301757812,-0.07082049548625946,-0.02629375457763672
1714064657435515000,12.009514892578125,0.0086669921875,-0.07664602994918823,-0.03518088161945343
1714064657445394000,12.019393798828125,0.008521080017089844,-0.07060349732637405,-0.041565701365470886
1714064657455274000,12.02927392578125,-0.0010395050048828125,-0.059953249990940094,-0.024302124977111816
1714064657465154800,12.03915478515625,0.0036840438842773438,-0.04241792857646942,-0.021451473236083984
1714064657475035000,12.049034912109375,0.008329391479492188,-0.046362631022930145,-0.016294121742248535
1714064657484914200,12.0589140625,0.0011272430419921875,-0.057185299694538116,-0.004160106182098389
1714064657494794000,12.0687939453125,0.015232086181640625,-0.06311918795108795,-0.006353557109832764
1714064657504674800,12.0786748046875,0.012621879577636719,-0.07378146797418594,-0.008510440587997437
1714064657514555000,12.088554931640624,0.0029935836791992188,-0.06308150291442871,-0.012986809015274048
1714064657524434200,12.09843408203125,-0.004120826721191406,-0.06432761996984482,-0.017387330532073975
1714064657534314000,12.10831396484375,-0.004054069519042969,-0.05613940954208374,-0.03584098815917969
1714064657544195000,12.118195068359375,0.010137557983398438,-0.05267391353845596,-0.032798007130622864
1714064657554075000,12.128074951171875,0.005260467529296875,-0.03749518841505051,-0.015680551528930664
1714064657563954200,12.1379541015625,0.0075244903564453125,-0.03916454315185547,-0.022389039397239685
1714064657573834200,12.147834228515626,0.009751319885253906,-0.04080925136804581,-0.007799267768859863
1714064657583715000,12.157715087890624,-0.021013259887695312,-0.035245053470134735,-0.014759331941604614
1714064657593595000,12.167594970703124,0.0052318572998046875,-0.05108029395341873,-0.014421910047531128
1714064657603474200,12.17747412109375,0.00043392181396484375,-0.052526429295539856,-0.014090120792388916
1714064657613354200,12.187354248046875,0.005130767822265625,-0.04688587784767151,-0.011290758848190308
1714064657623235000,12.197235107421875,0.007397651672363281,-0.04840191453695297,-0.036907270550727844
1714064657633115000,12.207114990234375,-0.0068531036376953125,-0.03812490403652191,-0.01972271502017975
1714064657642994200,12.216994140625,-0.004385948181152344,-0.03507855534553528,-0.028719380497932434
1714064657652874200,12.226874267578125,0.00039386749267578125,-0.02973196655511856,-0.014025509357452393
1714064657662755000,12.236755126953126,0.030989646911621094,-0.026825502514839172,-0.016054481267929077
1714064657672635000,12.246634765625,-0.0071964263916015625,-0.03809268772602081,0.0031380951404571533
1714064657682514200,12.25651416015625,0.014111518859863281,-0.030219607055187225,-0.00859379768371582
1714064657692394200,12.266394287109375,-0.00025081634521484375,-0.046138592064380646,-0.013067513704299927
1714064657702275000,12.276275146484375,-0.0026025772094726562,-0.05237548053264618,-0.017466619610786438
1714064657712155100,12.286155029296875,0.0045013427734375,-0.053803183138370514,-0.01943974196910858
1714064657722034200,12.2960341796875,-0.00734710693359375,-0.03637348860502243,-0.023734167218208313
