time,seconds_elapsed,z,y,x
1714065798698701000,0.181701171875,0.04309654235839844,0.01882869005203247,0.01659977436065674
1714065798708775700,0.191775634765625,0.04818534851074219,-0.010280802845954895,0.016914695501327515
1714065798718850800,0.201850830078125,0.07049560546875,-0.03004276752471924,0.03661602735519409
1714065798728925700,0.21192578125,0.07852649688720703,-0.052732646465301514,0.030993938446044922
1714065798739000800,0.222000732421875,0.060497283935546875,-0.03493806719779968,0.021843284368515015
1714065798749076200,0.232076171875,0.03350830078125,-0.007832646369934082,0.026692867279052734
1714065798759151600,0.242151611328125,0.03093719482421875,-0.008931279182434082,0.00937238335609436
1714065798769227000,0.25222705078125,0.03983879089355469,-0.05013751983642578,0.05136939883232117
1714065798779302400,0.262302490234375,0.07291793823242188,-0.04685467481613159,0.03273335099220276
1714065798789377800,0.272377685546875,0.027952194213867188,-0.03961193561553955,-0.009624689817428589
1714065798799453400,0.282453369140625,-0.0074863433837890625,0.017081841826438904,0.011309444904327393
1714065798809529000,0.292529052734375,-0.011590003967285156,0.016650065779685974,0.00647890567779541
1714065798819604700,0.302604736328125,0.007167816162109375,-0.02453315258026123,0.022335469722747803
1714065798829680400,0.312680419921875,0.04319190979003906,-0.05270195007324219,0.014717340469360352
1714065798839756000,0.322756103515625,0.03883934020996094,-0.029965490102767944,0.005102306604385376
1714065798849832000,0.33283203125,-0.01320648193359375,0.03989380598068237,-0.02474832534790039
1714065798859907800,0.342907958984375,-0.04468822479248047,0.061466366052627563,-0.014305174350738525
1714065798869983700,0.352983642578125,-0.0061130523681640625,0.032132551074028015,0.002793222665786743
1714065798880059600,0.3630595703125,0.049294471740722656,-0.02148863673210144,0.01220005750656128
1714065798890135600,0.373135498046875,0.0635061264038086,-0.029814094305038452,0.007334977388381958
1714065798900211500,0.38321142578125,0.03809165954589844,-0.001106351613998413,0.002660989761352539
1714065798910287600,0.39328759765625,0.015951156616210938,0.022193461656570435,0.012009203433990479
1714065798920363800,0.40336376953125,0.029277801513671875,0.03813818097114563,0.01411581039428711
1714065798930439700,0.413439697265625,0.01904582977294922,-0.008770734071731567,0.025662869215011597
1714065798940515800,0.423515869140625,0.06244468688964844,-0.047699570655822754,0.013578861951828003
1714065798950592000,0.433592041015625,0.06512832641601562,-0.043951719999313354,0.031800031661987305
1714065798960668200,0.443668212890625,0.016717910766601562,-0.007739931344985962,0.01943880319595337
1714065798970744300,0.453744384765625,-0.0023679733276367188,0.01601909101009369,0.021519988775253296
1714065798980820500,0.463820556640625,0.02793598175048828,-0.007162749767303467,0.01658332347869873
1714065798990896600,0.473896728515625,0.02250957489013672,-0.02517038583755493,0.011678218841552734
1714065799000972800,0.483972900390625,0.02655315399169922,-0.04061976075172424,0.01635149121284485
1714065799011049000,0.494049072265625,0.023514747619628906,-0.016302257776260376,-0.0048476457595825195
1714065799021125000,0.504125,-0.007415771484375,0.026280924677848816,0.011816918849945068
1714065799031201500,0.514201416015625,-0.0025615692138671875,0.030707821249961853,0.00484958291053772
1714065799041277700,0.524277587890625,0.009181976318359375,0.007021725177764893,0.000274658203125
1714065799051353900,0.534353759765625,0.020650863647460938,0.002476632595062256,-0.008868634700775146
1714065799061430300,0.54443017578125,0.008471488952636719,-0.0022048652172088623,0.0008998513221740723
1714065799071506400,0.55450634765625,0.012953758239746094,0.02831411361694336,0.003427743911743164
1714065799081483000,0.56448291015625,0.007984161376953125,0.0350014865398407,-0.0011203289031982422
1714065799091361800,0.57436181640625,0.014837265014648438,0.025281056761741638,0.015623897314071655
1714065799101241000,0.584240966796875,0.037949562072753906,0.0062892138957977295,0.017960339784622192
1714065799111121400,0.594121337890625,0.034811973571777344,-0.012421786785125732,0.013105928897857666
1714065799121001000,0.6040009765625,0.04113006591796875,-0.01668483018875122,0.02020019292831421
1714065799130879700,0.613879638671875,0.04499530792236328,-0.001982063055038452,0.02481478452682495
1714065799140759300,0.62375927734375,0.032378196716308594,0.010202348232269287,0.012918829917907715
1714065799150639600,0.6336396484375,0.0341033935546875,-0.003668069839477539,0.02943652868270874
1714065799160519200,0.643519287109375,0.03815937042236328,-0.015051305294036865,0.03143870830535889
1714065799170397700,0.653397705078125,0.037446022033691406,-0.019297808408737183,0.021784186363220215
1714065799180277500,0.663277587890625,0.020308494567871094,-0.007019728422164917,0.012194722890853882
1714065799190157800,0.67315771484375,0.0034837722778320312,0.00033411383628845215,0.012185931205749512
1714065799200037400,0.683037353515625,0.010479927062988281,0.005320936441421509,0.01217794418334961
1714065799209916000,0.692916015625,0.015002250671386719,-0.006360381841659546,0.0074713826179504395
1714065799219795500,0.70279541015625,0.014744758605957031,-0.008431494235992432,0.012260973453521729
1714065799229675800,0.71267578125,0.009787559509277344,0.017779886722564697,-0.00656774640083313
1714065799239555300,0.722555419921875,0.0025625228881835938,0.015422284603118896,-0.010957449674606323
1714065799249434000,0.73243408203125,0.007229804992675781,0.03193339705467224,-0.003506273031234741
1714065799259313700,0.742313720703125,0.007105827331542969,0.026985719799995422,-0.007828742265701294
1714065799269194000,0.752194091796875,0.01404571533203125,0.01977047324180603,-0.007367521524429321
1714065799279073500,0.762073486328125,0.02087116241455078,0.01726558804512024,0.011801302433013916
1714065799288952000,0.7719521484375,0.025229454040527344,0.02892349660396576,0.0023970603942871094
1714065799298831600,0.78183154296875,0.020101547241210938,0.014609217643737793,0.011983126401901245
1714065799308712200,0.791712158203125,0.02917957305908203,0.007600307464599609,0.005051612854003906
1714065799318591700,0.801591796875,0.035752296447753906,-0.0016501843929290771,0.010003358125686646
1714065799328470300,0.81147021484375,0.0469207763671875,-0.0061563849449157715,0.019580990076065063
1714065799338349800,0.821349853515625,0.03201103210449219,0.001183539628982544,0.024172306060791016
1714065799348230100,0.831230224609375,0.029123306274414062,0.006165266036987305,0.031041383743286133
1714065799358109700,0.841109619140625,0.04511833190917969,-0.0077696144580841064,0.03544172644615173
1714065799367988500,0.850988525390625,0.0208282470703125,-0.01664552092552185,0.027997702360153198
1714065799377868000,0.860867919921875,0.02048206329345703,-0.006658226251602173,0.023032009601593018
1714065799387748400,0.870748291015625,0.008370399475097656,-0.0038999319076538086,0.01579493284225464
1714065799397628000,0.8806279296875,0.005878448486328125,0.003520786762237549,0.01809525489807129
1714065799407506400,0.89050634765625,0.001068115234375,-0.0033074021339416504,0.013412952423095703
1714065799417386000,0.900385986328125,0.015171051025390625,0.011166036128997803,0.004100292921066284
1714065799427266300,0.910266357421875,0.0031480789184570312,0.006568849086761475,-0.0028180181980133057
1714065799437145900,0.920145751953125,0.0219268798828125,0.018405139446258545,0.004500925540924072
1714065799447024600,0.930024658203125,0.012141227722167969,0.0065021812915802,-0.004781544208526611
1714065799456904200,0.939904296875,0.009581565856933594,0.008922785520553589,0.004924297332763672
1714065799466784500,0.949784423828125,0.009419441223144531,0.025428250432014465,-0.00436517596244812
1714065799476664000,0.9596640625,0.01632213592529297,0.02517925202846527,0.0006253719329833984
1714065799486542800,0.96954296875,0.027815818786621094,0.03199698030948639,0.010359406471252441
1714065799496422400,0.97942236328125,0.02499103546142578,0.01751333475112915,0.012868672609329224
1714065799506302700,0.989302734375,0.03163433074951172,0.02210468053817749,0.02228042483329773
1714065799516182300,0.999182373046875,0.035816192626953125,0.010258495807647705,0.015055924654006958
1714065799526060800,1.009060791015625,0.03286552429199219,0.010380685329437256,0.017368584871292114
1714065799535940600,1.018940673828125,0.039381980895996094,-0.008332669734954834,0.029059499502182007
1714065799545821000,1.028821044921875,0.041077613830566406,-0.005664736032485962,0.024076253175735474
1714065799555700500,1.038700439453125,0.038031578063964844,-0.005395442247390747,0.033419668674468994
1714065799565579000,1.0485791015625,0.01855754852294922,-0.0027764439582824707,0.01435697078704834
1714065799575458600,1.05845849609375,0.030014991760253906,-0.0142078697681427,0.023862332105636597
1714065799585339000,1.0683388671875,0.008324623107910156,-0.00908777117729187,0.01896578073501587
1714065799595218400,1.078218505859375,0.017599105834960938,-0.003934592008590698,0.028394341468811035
1714065799605097200,1.08809716796875,0.003177642822265625,0.00571855902671814,0.011647939682006836
1714065799614976800,1.097976806640625,0.007829666137695312,-0.0011460185050964355,0.02355271577835083
1714065799624857000,1.107857177734375,0.0006341934204101562,0.013173192739486694,0.004536151885986328
1714065799634736600,1.117736572265625,0.00533294677734375,0.008538573980331421,0.011732608079910278
1714065799644615200,1.127615234375,0.005245208740234375,0.008689582347869873,0.0070381760597229
1714065799654495000,1.137494873046875,0.01692962646484375,0.01590070128440857,0.009484589099884033
1714065799664375300,1.147375244140625,-0.0021848678588867188,0.011220663785934448,-0.0022349655628204346
1714065799674254800,1.1572548828125,0.0049152374267578125,0.02074381709098816,0.0003660619258880615
1714065799684133400,1.16713330078125,0.009541511535644531,0.023045599460601807,0.002923637628555298
1714065799694013000,1.177012939453125,0.018796920776367188,0.006357073783874512,0.010147035121917725
1714065799703893200,1.186893310546875,0.025543212890625,0.018315494060516357,0.007951706647872925
1714065799713772800,1.196772705078125,0.022760391235351562,0.018185168504714966,0.010382920503616333
1714065799723651600,1.206651611328125,0.02238178253173828,0.015821248292922974,0.015127837657928467
1714065799733531100,1.21653125,0.036131858825683594,0.015732526779174805,0.017439454793930054
1714065799743411500,1.226411376953125,0.033171653747558594,0.0038701891899108887,0.01500093936920166
1714065799753291000,1.236291015625,0.03732490539550781,-0.0054360926151275635,0.0267314612865448
1714065799763169800,1.246169677734375,0.02728271484375,-0.007520616054534912,0.021790415048599243
1714065799773049300,1.25604931640625,0.029178619384765625,-0.0025118887424468994,0.031053632497787476
1714065799782929700,1.2659296875,0.031047821044921875,0.00017768144607543945,0.016620516777038574
1714065799792809200,1.275809326171875,0.025818824768066406,-0.016129672527313232,0.021261513233184814
1714065799802687700,1.285687744140625,0.018319129943847656,-0.015685826539993286,0.021235257387161255
1714065799812567300,1.2955673828125,-0.0008258819580078125,0.005938410758972168,0.011792659759521484
1714065799822447900,1.30544775390625,0.00860595703125,0.01084136962890625,0.014160007238388062
1714065799832327400,1.315327392578125,0.00139617919921875,0.0037730932235717773,0.004716843366622925
1714065799842206000,1.3252060546875,0.008433341979980469,0.006239414215087891,0.00013947486877441406
1714065799852085500,1.33508544921875,0.0012302398681640625,0.013487398624420166,0.002697676420211792
1714065799861965800,1.3449658203125,-0.0011434555053710938,0.022972971200942993,0.002862393856048584
1714065799871845400,1.354845458984375,0.005938529968261719,0.018175214529037476,0.0006701648235321045
1714065799881724200,1.36472412109375,0.0011320114135742188,0.02523249387741089,0.0032261013984680176
1714065799891603700,1.374603759765625,0.0058231353759765625,0.020397096872329712,0.0010277926921844482
1714065799901484000,1.384484130859375,0.015140533447265625,0.022586405277252197,0.01299130916595459
1714065799911363600,1.394363525390625,0.017243385314941406,0.024857670068740845,0.005921870470046997
1714065799921242400,1.404242431640625,0.024019241333007812,0.029445305466651917,0.008386999368667603
1714065799931122000,1.414121826171875,0.021265029907226562,0.022185534238815308,0.017873704433441162
1714065799941002200,1.424002197265625,0.03032970428466797,0.007984161376953125,0.010722935199737549
1714065799950881800,1.4338818359375,0.029825210571289062,0.010498881340026855,0.02017071843147278
1714065799960760300,1.44376025390625,0.05051612854003906,-0.005980461835861206,0.0387592613697052
1714065799970640000,1.453639892578125,0.03319263458251953,-0.008059889078140259,0.02184361219406128
1714065799980520400,1.4635205078125,0.030286788940429688,0.004143267869949341,0.028755158185958862
1714065799990399700,1.473399658203125,0.018011093139648438,-0.00034055113792419434,0.028485655784606934
1714065800000278500,1.483278564453125,0.017711639404296875,0.002312988042831421,0.011741280555725098
1714065800010158000,1.493157958984375,0.0056476593017578125,-0.00449448823928833,0.009401172399520874
1714065800020038400,1.503038330078125,0.005550384521484375,0.00517234206199646,0.02122524380683899
1714065800029918000,1.51291796875,0.0007467269897460938,0.0077340006828308105,0.007074624300003052
1714065800039796700,1.522796630859375,-0.0016193389892578125,0.003190368413925171,0.007166445255279541
1714065800049676300,1.53267626953125,0.007822036743164062,0.01037493348121643,0.011965155601501465
1714065800059556600,1.542556640625,-0.00408172607421875,0.005668759346008301,0.0025587379932403564
1714065800069436200,1.552436279296875,0.0006961822509765625,0.01999726891517639,-0.00668761134147644
1714065800079314700,1.562314697265625,-0.006384849548339844,0.019839078187942505,0.003168940544128418
1714065800089194500,1.572194580078125,-0.0062808990478515625,0.03145451843738556,0.008034288883209229
1714065800099074800,1.58207470703125,-0.0038213729858398438,0.02886977791786194,0.005755960941314697
1714065800108954000,1.5919541015625,0.008014678955078125,0.021619677543640137,0.00822398066520691
1714065800118833000,1.6018330078125,0.007878303527832031,0.02614283561706543,0.013005048036575317
1714065800128712400,1.61171240234375,0.021864891052246094,0.028236448764801025,0.013116598129272461
1714065800138592800,1.6215927734375,0.028564453125,0.009225994348526001,0.013107776641845703
1714065800148472300,1.631472412109375,0.025735855102539062,0.00936591625213623,0.02251589298248291
1714065800158351000,1.64135107421875,0.03472423553466797,0.01656201481819153,0.0199928879737854
1714065800168230700,1.651230712890625,0.022375106811523438,0.011867225170135498,0.031637102365493774
1714065800178111000,1.661111083984375,0.02906513214111328,-0.0068704187870025635,0.031319648027420044
1714065800187990500,1.670990478515625,0.030936241149902344,0.012371450662612915,0.028653234243392944
1714065800197869000,1.680869140625,0.023359298706054688,-0.011082977056503296,0.01896873116493225
1714065800207748900,1.690748779296875,0.015903472900390625,-0.00601881742477417,0.014150679111480713
1714065800217629200,1.700629150390625,0.025053024291992188,-0.0010389983654022217,0.021183907985687256
1714065800227508700,1.7105087890625,0.003448486328125,-0.0007278621196746826,0.028103262186050415
1714065800237387300,1.72038720703125,-0.008382797241210938,0.011230438947677612,0.016073763370513916
1714065800247266800,1.730266845703125,-0.00118255615234375,0.004155844449996948,0.018369942903518677
1714065800257147100,1.740147216796875,0.0035457611083984375,0.006734609603881836,0.00885683298110962
1714065800267026700,1.750026611328125,-0.00357818603515625,0.009151726961135864,0.004210680723190308
1714065800276905500,1.759905517578125,0.0035448074340820312,0.011647194623947144,0.004350334405899048
1714065800286785000,1.769784912109375,-0.005930900573730469,0.023517876863479614,-0.0002206861972808838
1714065800296665300,1.779665283203125,-0.0058307647705078125,0.030482321977615356,-0.002361387014389038
1714065800306545000,1.789544921875,-0.008090019226074219,0.025441080331802368,0.007304638624191284
1714065800316423700,1.799423583984375,0.015583992004394531,0.0251922607421875,0.00033015012741088867
1714065800326303200,1.80930322265625,0.005909919738769531,0.03201015293598175,0.005124270915985107
1714065800336183600,1.81918359375,0.017579078674316406,0.04106864333152771,0.007602900266647339
1714065800346063000,1.82906298828125,0.02199268341064453,0.031142577528953552,0.01474866271018982
1714065800355941600,1.838941650390625,0.01456451416015625,0.019027769565582275,0.02165663242340088
1714065800365821400,1.848821533203125,0.01903247833251953,0.011823266744613647,0.021386951208114624
1714065800375701800,1.85870166015625,0.021071434020996094,0.01192009449005127,0.03301137685775757
1714065800385581300,1.868581298828125,0.013653755187988281,0.011896640062332153,0.018545925617218018
1714065800395459800,1.8784599609375,0.027553558349609375,0.004810988903045654,0.025390654802322388
1714065800405339400,1.88833935546875,0.029445648193359375,0.009610295295715332,0.029882431030273438
1714065800415219700,1.8982197265625,0.017181396484375,0.0050356388092041016,0.03206714987754822
1714065800425099300,1.908099365234375,0.012183189392089844,-0.004289835691452026,0.019971638917922974
1714065800434978000,1.91797802734375,0.011977195739746094,0.0030195116996765137,0.01984870433807373
1714065800444857600,1.927857666015625,-0.002346038818359375,-0.0014452934265136719,0.026790380477905273
1714065800454738000,1.937738037109375,0.00004673004150390625,0.0013455748558044434,0.012547343969345093
1714065800464617500,1.947617431640625,0.0024013519287109375,0.011033862829208374,0.014902323484420776
1714065800474496300,1.957496337890625,0.004712104797363281,0.015852242708206177,0.00556570291519165
1714065800484375800,1.967375732421875,-0.0024318695068359375,0.01340910792350769,-0.0013796985149383545
1714065800494256000,1.977256103515625,-0.0000400543212890625,0.0133608877658844,-0.003500998020172119
1714065800504135700,1.9871357421875,-0.004750251770019531,0.027438610792160034,0.008538275957107544
1714065800514014200,1.99701416015625,0.004746437072753906,0.020212620496749878,0.006251692771911621
1714065800523893800,2.006893798828125,-0.009457588195800781,0.027232229709625244,0.006357401609420776
1714065800533774000,2.016774169921875,0.000118255615234375,0.03884328901767731,0.011169791221618652
1714065800543654000,2.02665380859375,0.009530067443847656,0.03366273641586304,-0.0005774199962615967
1714065800553532400,2.036532470703125,0.007018089294433594,0.026332974433898926,0.0137673020362854
1714065800563412000,2.046411865234375,0.013957023620605469,0.030777737498283386,0.009158015251159668
1714065800573292300,2.056292236328125,0.006659507751464844,0.021141916513442993,0.01639661192893982
1714065800583171800,2.066171875,0.018317222595214844,0.0140208899974823,0.028222888708114624
1714065800593050600,2.076050537109375,0.02036285400390625,0.004545688629150391,0.02560824155807495
1714065800602930200,2.08593017578125,0.02237415313720703,0.006999373435974121,0.0324539840221405
1714065800612810500,2.095810546875,0.02671051025390625,0.002468317747116089,0.022706270217895508
1714065800622690000,2.10568994140625,0.019196510314941406,0.004956692457199097,0.02265647053718567
1714065800632568600,2.115568603515625,0.016523361206054688,0.009876430034637451,0.0248430073261261
1714065800642448100,2.1254482421875,0.009181976318359375,0.009887129068374634,0.029347360134124756
1714065800652328700,2.13532861328125,0.016089439392089844,-0.008817195892333984,0.0268326997756958
1714065800662208300,2.145208251953125,0.008754730224609375,0.008103132247924805,0.0196516215801239
1714065800672086800,2.155086669921875,-0.007872581481933594,0.008143395185470581,0.010117262601852417
1714065800681966300,2.16496630859375,-0.010099411010742188,0.0011203885078430176,0.014867067337036133
1714065800691846700,2.1748466796875,-0.005225181579589844,0.013048052787780762,0.01247510313987732
1714065800701726200,2.184726318359375,-0.012200355529785156,0.015478760004043579,-0.00635644793510437
1714065800711605000,2.19460498046875,-0.00493621826171875,0.02493155002593994,0.005849123001098633
1714065800721484500,2.204484619140625,-0.01662731170654297,0.024691343307495117,0.0012532174587249756
1714065800731364900,2.21436474609375,-0.002223968505859375,0.024573802947998047,0.0037965476512908936
1714065800741244400,2.224244384765625,-0.011607170104980469,0.021985352039337158,0.00394323468208313
1714065800751123200,2.234123291015625,-0.0019989013671875,0.0265025794506073,0.008795857429504395
1714065800761002800,2.244002685546875,0.009806632995605469,0.028709053993225098,0.006505012512207031
1714065800770883000,2.253883056640625,0.004931449890136719,0.023816168308258057,0.006725281476974487
1714065800780762600,2.2637626953125,0.018972396850585938,0.040073901414871216,0.016239970922470093
1714065800790641200,2.27364111328125,0.02571582794189453,0.023220598697662354,0.02100631594657898
1714065800800520700,2.283520751953125,0.029992103576660156,0.016065001487731934,0.01863071322441101
1714065800810401000,2.293401123046875,0.0153656005859375,0.013737082481384277,0.03277409076690674
1714065800820280600,2.303280517578125,0.024522781372070312,0.006620883941650391,0.02066686749458313
1714065800830159400,2.313159423828125,0.031177520751953125,0.009154647588729858,0.025237470865249634
1714065800840039000,2.323038818359375,0.018883705139160156,-0.002597719430923462,0.02031514048576355
1714065800849919200,2.332919189453125,0.006794929504394531,-0.004737406969070435,0.0225374698638916
1714065800859798800,2.342798828125,0.011391639709472656,-0.00436440110206604,0.034142881631851196
1714065800869677600,2.352677490234375,0.008844375610351562,0.0007107853889465332,0.02683994174003601
1714065800879557000,2.36255712890625,0.0016279220581054688,-0.006188303232192993,0.02672135829925537
1714065800889437400,2.3724375,-0.012526512145996094,0.005861222743988037,0.012360930442810059
1714065800899317000,2.38231689453125,-0.01702880859375,0.008293092250823975,0.017073333263397217
1714065800909195500,2.392195556640625,-0.0026178359985351562,0.017865687608718872,0.0028735995292663574
1714065800919075000,2.402074951171875,-0.009639739990234375,0.0130348801612854,-0.00873526930809021
1714065800928955400,2.411955322265625,-0.0047779083251953125,0.017701387405395508,0.00586429238319397
1714065800938835000,2.4218349609375,-0.0070590972900390625,0.024644285440444946,-0.005675673484802246
1714065800948713700,2.431713623046875,-0.0069408416748046875,0.02923595905303955,-0.0030168890953063965
1714065800958593300,2.44159326171875,0.0002384185791015625,0.03139694035053253,-0.0004023313522338867
1714065800968473600,2.4514736328125,-0.006827354431152344,0.024105161428451538,0.0068769752979278564
1714065800978353200,2.461353271484375,0.005057334899902344,0.019289076328277588,0.004618227481842041
1714065800988232000,2.47123193359375,0.035574913024902344,0.028559714555740356,0.018876463174819946
1714065800998111500,2.481111572265625,-0.0026865005493164062,0.025904834270477295,0.007000863552093506
1714065801007991800,2.49099169921875,0.009121894836425781,0.018585890531539917,0.011921346187591553
1714065801017871400,2.500871337890625,0.08188915252685547,-0.01670566201210022,-0.1157374382019043
1714065801027750000,2.51075,0.01218414306640625,-0.029996424913406372,-0.440910279750824
1714065801037629400,2.52062939453125,0.04256725311279297,0.02242368459701538,-0.5247306227684021
1714065801047509800,2.530509765625,-0.05694293975830078,-0.04925501346588135,-0.6577802896499634
1714065801057389300,2.540389404296875,0.19586467742919922,-0.04190480709075928,-0.3329019844532013
1714065801067268000,2.55026806640625,-0.2711763381958008,0.08916245400905609,-0.17117267847061157
1714065801077147600,2.560147705078125,0.5288305282592773,0.03496405482292175,-0.9833451509475708
1714065801087028000,2.570028076171875,0.08904170989990234,-0.4625691771507263,-2.3080313205718994
1714065801096907500,2.579907470703125,0.2404336929321289,-0.15009364485740662,-2.4142465591430664
1714065801106786300,2.589786376953125,0.09495162963867188,-0.004243820905685425,-2.452197551727295
1714065801116665900,2.599665771484375,-0.537348747253418,0.21766740083694458,-2.598724126815796
1714065801126546200,2.609546142578125,-0.12737464904785156,-0.01770457625389099,-2.9101390838623047
1714065801136425700,2.61942578125,0.2331380844116211,-0.14084714651107788,-2.1787989139556885
1714065801146304300,2.62930419921875,1.1023683547973633,-0.05495840311050415,-2.9193999767303467
1714065801156183800,2.639183837890625,-0.9813957214355469,0.16406771540641785,-3.398808002471924
1714065801166064000,2.649064208984375,0.7368907928466797,-0.5714759826660156,-3.244520425796509
1714065801175943700,2.658943603515625,0.5880842208862305,-0.20846089720726013,-2.514583110809326
1714065801185822500,2.668822509765625,0.2158517837524414,0.21390536427497864,-2.785632848739624
1714065801195702000,2.678701904296875,-1.4638385772705078,0.4690513014793396,-3.7059249877929688
1714065801205582300,2.688582275390625,-1.0407371520996094,0.04199370741844177,-3.105361223220825
1714065801215462000,2.6984619140625,2.135181427001953,-0.10467308759689331,-2.7680535316467285
1714065801225340700,2.708340576171875,-1.242807388305664,0.04837915301322937,-3.138812303543091
1714065801235220200,2.71822021484375,-0.5535125732421875,0.3680199086666107,-1.9821563959121704
1714065801245100500,2.7281005859375,1.90069580078125,-0.12666824460029602,-2.8927996158599854
1714065801254980000,2.73797998046875,-1.567122459411621,-0.3599463403224945,-3.7345385551452637
1714065801264858600,2.747858642578125,1.9159727096557617,0.180611252784729,-2.5013163089752197
1714065801274738200,2.75773828125,-0.28746509552001953,0.062346845865249634,-2.544095039367676
1714065801284618500,2.767618408203125,-1.6574907302856445,-0.14700400829315186,-3.780423641204834
1714065801294498000,2.777498046875,-0.4542655944824219,-0.40258342027664185,-3.7925260066986084
1714065801304376800,2.787376953125,2.009082794189453,-0.31047335267066956,-2.722245216369629
1714065801314256400,2.79725634765625,1.9675626754760742,0.380190372467041,-5.329561710357666
1714065801324136700,2.80713671875,-3.653169631958008,-0.09412094950675964,-1.2708954811096191
1714065801334016300,2.817016357421875,1.3724679946899414,-0.10779446363449097,-1.2253766059875488
1714065801343894800,2.826894775390625,1.449000358581543,-0.29225409030914307,-0.9696618318557739
1714065801353774600,2.836774658203125,-0.7133159637451172,-0.7218532562255859,-2.869887113571167
1714065801363655000,2.846655029296875,1.2740087509155273,-0.3270886540412903,-1.7665290832519531
1714065801373534500,2.856534423828125,-1.0111570358276367,0.5757326483726501,-3.211284875869751
1714065801383413000,2.8664130859375,-0.6117925643920898,0.26576152443885803,-3.0931344032287598
1714065801393292500,2.87629248046875,-1.64007568359375,0.7109840512275696,-1.4589530229568481
1714065801403172900,2.8861728515625,1.5512371063232422,0.6812108755111694,-0.35501882433891296
1714065801413052400,2.896052490234375,0.3432178497314453,0.3254776895046234,-2.086782693862915
1714065801422931200,2.90593115234375,-0.505314826965332,0.420620858669281,-1.5900440216064453
1714065801432810800,2.915810791015625,-1.3284721374511719,-0.4607400894165039,-1.596952199935913
1714065801442691000,2.925691162109375,-1.3537769317626953,-0.9848660826683044,-3.9502060413360596
1714065801452570600,2.935570556640625,-5.111161708831787,0.841995894908905,-3.7850193977355957
1714065801462449400,2.945449462890625,5.3056230545043945,2.395918130874634,-1.465010404586792
1714065801472329000,2.955328857421875,1.5645580291748047,-1.0808343887329102,0.5153758525848389
1714065801482209300,2.965209228515625,-1.2979707717895508,-0.9019155502319336,0.4612888693809509
1714065801492088800,2.9750888671875,5.97282600402832,0.4336474537849426,1.123795747756958
1714065801501967400,2.98496728515625,0.8920326232910156,-0.9279187321662903,-4.646408557891846
1714065801511847000,2.994846923828125,-0.30780887603759766,-0.7376399040222168,-2.481194257736206
1714065801521727200,3.004727294921875,-3.864687442779541,0.8624518513679504,-1.4269976615905762
1714065801531606800,3.014606689453125,-1.7780914306640625,0.9377031326293945,-1.0579627752304077
1714065801541485600,3.024485595703125,-1.5181217193603516,0.31374818086624146,0.7691175937652588
1714065801551365000,3.034365234375,3.3629798889160156,0.4087771475315094,-1.209477186203003
1714065801561245400,3.044245361328125,-1.807626724243164,0.49981436133384705,-4.052402973175049
1714065801571125000,3.054125,-0.5778846740722656,-0.4694022536277771,-1.7312017679214478
1714065801581003800,3.064003662109375,1.8175830841064453,-1.1376978158950806,1.4147775173187256
1714065801590883300,3.07388330078125,2.5028200149536133,1.954571008682251,0.3728039264678955
1714065801600763600,3.083763671875,-0.7662534713745117,0.9162648320198059,-3.4619758129119873
1714065801610643200,3.093643310546875,-4.926065444946289,-1.5125223398208618,-2.9846794605255127
1714065801620521700,3.103521728515625,4.9331512451171875,0.31009364128112793,-0.6402291059494019
1714065801630401300,3.1134013671875,3.962582588195801,-0.5931153297424316,1.103858232498169
1714065801640281900,3.12328173828125,-2.8304615020751953,-0.11712712049484253,-1.2143603563308716
1714065801650161200,3.1331611328125,-4.248832702636719,0.4200941324234009,-1.5352988243103027
1714065801660040000,3.1430400390625,-0.21887969970703125,1.3279951810836792,-3.107273817062378
1714065801669919500,3.15291943359375,-0.7719564437866211,1.3702532052993774,-0.5310830473899841
1714065801679799800,3.1627998046875,3.346796989440918,-1.0188374519348145,1.463046908378601
1714065801689679400,3.172679443359375,4.137245178222656,-0.5238515734672546,2.5761044025421143
1714065801699558100,3.18255810546875,-0.5396938323974609,-0.25339552760124207,-2.990915536880493
1714065801709437700,3.192437744140625,-1.3974695205688477,0.14098598062992096,-3.5065786838531494
1714065801719318000,3.202318115234375,-3.3078970909118652,0.4852368235588074,-2.2364587783813477
1714065801729197600,3.212197509765625,-1.1845455169677734,0.6691190004348755,0.33141303062438965
1714065801739076000,3.222076171875,2.6116819381713867,-0.07474839687347412,1.2329953908920288
1714065801748955600,3.23195556640625,0.9700641632080078,0.4093771278858185,-2.0450756549835205
1714065801758836000,3.2418359375,-4.188424587249756,-0.111003577709198,-2.3257052898406982
1714065801768715500,3.251715576171875,-0.03801918029785156,0.4917522966861725,-0.037352919578552246
1714065801778594300,3.26159423828125,2.847041130065918,0.41128265857696533,-0.08426633477210999
1714065801788473900,3.271473876953125,-0.7923078536987305,-1.004163384437561,-0.8799302577972412
1714065801798354200,3.281354248046875,3.320232391357422,-0.11493989825248718,0.7074705362319946
1714065801808233700,3.291233642578125,0.9017229080200195,-0.24654650688171387,-0.7692062854766846
1714065801818112500,3.301112548828125,-4.4194159507751465,0.4680235683917999,-0.05405992269515991
1714065801827992000,3.310991943359375,0.07931137084960938,1.5360113382339478,-0.2581512928009033
1714065801837872400,3.320872314453125,0.09936714172363281,1.2084856033325195,-1.7430315017700195
1714065801847752000,3.330751953125,-3.9784903526306152,-0.5682768821716309,-1.554029107093811
1714065801857630500,3.34063037109375,4.332937240600586,0.0208185613155365,1.3274810314178467
1714065801867510000,3.350510009765625,5.160665512084961,-0.8814680576324463,3.3093130588531494
1714065801877390300,3.360390380859375,1.7949981689453125,-0.011214733123779297,-0.9546588659286499
1714065801887270000,3.370269775390625,-2.5130505561828613,1.3987191915512085,-2.455639600753784
1714065801897148700,3.380148681640625,-5.314088344573975,-0.15677455067634583,-0.12629374861717224
1714065801907028200,3.3900283203125,2.4831371307373047,-0.886680006980896,-1.3715481758117676
1714065801916908500,3.399908447265625,0.5036602020263672,0.8388652801513672,-3.3753604888916016
1714065801926788000,3.4097880859375,-3.4621362686157227,1.1062721014022827,-2.2746734619140625
1714065801936667000,3.4196669921875,-3.924556255340576,0.07450446486473083,0.679713249206543
1714065801946546400,3.42954638671875,6.3415327072143555,-1.7631181478500366,3.8677186965942383
1714065801956426800,3.4394267578125,6.120455741882324,1.6079298257827759,-0.23469692468643188
1714065801966306300,3.449306396484375,-3.529940605163574,1.1476590633392334,-3.634355068206787
1714065801976184800,3.459184814453125,-6.598725318908691,-0.5943433046340942,0.9600780010223389
1714065801986064400,3.469064453125,4.169988632202148,0.8296588659286499,0.6190884113311768
1714065801995944700,3.47894482421875,1.007741928100586,0.30986273288726807,-0.35064688324928284
1714065802005824300,3.48882421875,-4.044861793518066,0.21216654777526855,-1.8003028631210327
1714065802015703000,3.498703125,-2.4415459632873535,0.16943341493606567,0.6707107424736023
1714065802025582600,3.50858251953125,6.3478498458862305,0.6643114686012268,0.6657954454421997
1714065802035463000,3.518462890625,1.2474946975708008,-0.45037341117858887,-0.22862958908081055
1714065802045342500,3.528342529296875,-1.9451417922973633,0.8655413389205933,0.5312780141830444
1714065802055221000,3.538220947265625,1.1626529693603516,1.101252555847168,1.0630985498428345
1714065802065100800,3.548100830078125,2.6474695205688477,0.028327196836471558,-2.805408477783203
1714065802074981000,3.557981201171875,-3.6291890144348145,-0.7023651599884033,-1.7949007749557495
1714065802084860700,3.567860595703125,-3.1255297660827637,-1.2087397575378418,2.6188340187072754
1714065802094739200,3.5777392578125,5.395844459533691,-0.38600847125053406,2.9001102447509766
1714065802104618800,3.58761865234375,3.592597007751465,2.007431745529175,-0.28816497325897217
1714065802114499000,3.5974990234375,-2.5501160621643066,2.7550666332244873,-4.448712348937988
1714065802124378600,3.607378662109375,-8.784102439880371,-0.9108996391296387,-0.9231148362159729
1714065802134257400,3.61725732421875,2.310492515563965,1.0635111331939697,-0.574119508266449
1714065802144137000,3.627136962890625,-1.5933847427368164,-0.28465497493743896,0.02137303352355957
1714065802154017300,3.637017333984375,1.225712776184082,-0.021897077560424805,1.2166270017623901
1714065802163896800,3.646896728515625,-0.7778129577636719,-0.5339937210083008,-1.558647632598877
1714065802173775400,3.656775390625,5.00594425201416,-0.22227361798286438,-0.6492730379104614
1714065802183655200,3.6666552734375,1.296339988708496,-0.8870441913604736,1.6909478902816772
1714065802193535500,3.676535400390625,0.37871837615966797,0.4837633967399597,2.4898576736450195
1714065802203414800,3.686414794921875,0.4491128921508789,2.0550267696380615,-1.1456860303878784
1714065802213293600,3.69629345703125,-3.500722885131836,0.7897571921348572,-2.669131278991699
1714065802223173000,3.706173095703125,-3.167184829711914,-0.2566184103488922,0.43300774693489075
1714065802233053400,3.716053466796875,5.643115043640137,-1.1013281345367432,1.613933801651001
1714065802242933000,3.72593310546875,0.5962390899658203,-0.2681906819343567,0.7926936149597168
1714065802252811800,3.735811767578125,-0.8117437362670898,1.119948387145996,0.7948423027992249
1714065802262691300,3.74569140625,-1.4116334915161133,2.8724002838134766,-1.3721234798431396
1714065802272571600,3.755571533203125,-3.751401424407959,-0.6810640692710876,-0.12592864036560059
1714065802282451200,3.765451171875,2.5542306900024414,-0.9276221394538879,-1.372867226600647
1714065802292329700,3.775329833984375,0.7235565185546875,-0.7658997774124146,2.564326763153076
1714065802302209300,3.785209228515625,-1.0977668762207031,-1.4005634784698486,-2.3242027759552
1714065802312089900,3.79508984375,-0.8658676147460938,1.5932528972625732,-2.62595272064209
1714065802321969400,3.804969482421875,0.1974506378173828,1.2402691841125488,1.6694772243499756
1714065802331848000,3.814847900390625,3.4076766967773438,0.6130346059799194,2.519467830657959
1714065802341727500,3.8247275390625,1.0469951629638672,0.41192787885665894,-0.9962058663368225
1714065802351607800,3.83460791015625,-3.170581817626953,1.1186178922653198,-0.24090978503227234
1714065802361487400,3.8444873046875,2.1357030868530273,-1.974596619606018,2.2550296783447266
1714065802371366100,3.8543662109375,2.792387008666992,-1.1217328310012817,2.035642147064209
1714065802381245700,3.86424560546875,-1.0501127243041992,0.38225728273391724,-0.5263957977294922
1714065802391126000,3.8741259765625,-4.1603779792785645,1.9101719856262207,0.28383779525756836
1714065802401005600,3.884005615234375,1.8605022430419922,1.6887853145599365,-2.6275508403778076
1714065802410884000,3.893884033203125,-1.5417118072509766,-1.2563681602478027,-0.7987384796142578
1714065802420763600,3.903763671875,0.7045803070068359,-0.29006966948509216,2.2395825386047363
1714065802430644000,3.91364404296875,0.8129758834838867,-1.6239187717437744,1.1389973163604736
1714065802440523500,3.9235234375,0.30220699310302734,-0.025129258632659912,-1.7465518712997437
1714065802450402300,3.93340234375,1.7965946197509766,3.619680881500244,-0.8934741020202637
1714065802460281900,3.94328173828125,-5.045131683349609,0.17528533935546875,1.1588331460952759
1714065802470162200,3.953162109375,1.4393911361694336,1.6111464500427246,-0.7645907402038574
1714065802480041700,3.963041748046875,-2.71975040435791,-0.05684894323348999,-0.21098101139068604
1714065802489920300,3.972920166015625,-2.8659348487854004,0.12239041924476624,2.5749776363372803
1714065802499800000,3.982800048828125,6.999924659729004,-0.03703761100769043,2.3301501274108887
1714065802509680400,3.992680419921875,1.2669353485107422,-0.35099342465400696,-0.012799590826034546
1714065802519559700,4.0025595703125,-4.084948539733887,2.035888910293579,-0.8851653337478638
1714065802529438500,4.0124384765625,-0.5253591537475586,3.7363946437835693,-1.4508808851242065
1714065802539318000,4.022318115234375,-0.7673110961914062,-0.4034045338630676,-2.2201731204986572
1714065802549198300,4.0321982421875,-4.5081305503845215,-0.5632544755935669,0.5456439256668091
1714065802559078000,4.042077880859375,1.0949029922485352,1.259919285774231,2.1501481533050537
1714065802568956700,4.051956787109375,4.08302116394043,0.5219508409500122,1.9581701755523682
1714065802578836200,4.061836181640625,0.044986724853515625,-0.9567521214485168,-1.9434747695922852
1714065802588716500,4.071716552734375,-1.862034797668457,1.7097551822662354,-1.0360740423202515
1714065802598596000,4.08159619140625,4.41562557220459,1.5431015491485596,0.5566449165344238
1714065802608474600,4.091474609375,-1.693465232849121,-0.5033435821533203,0.6962777376174927
1714065802618354200,4.101354248046875,-1.7574834823608398,-0.5976107716560364,2.0785765647888184
1714065802628234800,4.11123486328125,3.3103513717651367,2.2290234565734863,2.471038818359375
1714065802638114000,4.121114013671875,0.4801149368286133,0.15060651302337646,-2.1832096576690674
1714065802647992800,4.130992919921875,-1.6892423629760742,0.35001784563064575,-0.3386370539665222
1714065802657872400,4.140872314453125,2.237133026123047,0.6721516847610474,2.1754558086395264
1714065802667752700,4.150752685546875,-0.056250572204589844,2.075212001800537,-1.5896828174591064
1714065802677632300,4.16063232421875,-6.1615095138549805,0.47231557965278625,0.007899254560470581
1714065802687510800,4.1705107421875,5.137825965881348,-0.417791485786438,0.6834142208099365
1714065802697390600,4.180390625,2.7569704055786133,-0.22414731979370117,0.8710067272186279
1714065802707271000,4.19027099609375,-2.1499414443969727,-1.0707213878631592,-0.8514521718025208
1714065802717150500,4.200150390625,-3.860905170440674,1.15036940574646,-2.2214651107788086
1714065802727029000,4.210029052734375,2.934197425842285,1.3376147747039795,0.069485604763031
1714065802736908500,4.219908447265625,-2.042783260345459,-0.13106685876846313,1.5893747806549072
1714065802746788900,4.229788818359375,1.8110685348510742,0.9089463949203491,1.5577322244644165
1714065802756668400,4.23966845703125,0.5700836181640625,0.829628586769104,0.34811684489250183
1714065802766547200,4.249547119140625,-3.760293960571289,0.30959081649780273,0.41367417573928833
1714065802776426800,4.2594267578125,2.8746280670166016,1.0740768909454346,1.078790307044983
1714065802786307000,4.26930712890625,1.5117254257202148,1.2088066339492798,-0.48507967591285706
1714065802796186600,4.2791865234375,-3.4233789443969727,-0.25304821133613586,-0.2276110053062439
1714065802806065200,4.289065185546875,-3.4964003562927246,0.5108856558799744,1.394612193107605
1714065802815944700,4.29894482421875,7.02882194519043,-0.22730016708374023,0.5984742641448975
1714065802825825000,4.308824951171875,-0.3532390594482422,1.1575660705566406,0.5930004715919495
1714065802835704600,4.31870458984375,-5.335943222045898,1.0176763534545898,-2.36372971534729
1714065802845583400,4.328583251953125,-0.438140869140625,0.4252797067165375,-3.5895750522613525
1714065802855463000,4.338462890625,-2.673264503479004,0.7965729236602783,1.4214560985565186
1714065802865343200,4.34834326171875,4.7343950271606445,-0.3020061254501343,2.997976541519165
1714065802875222800,4.358222900390625,3.634087562561035,0.7937003374099731,-0.2566220760345459
1714065802885101300,4.368101318359375,-4.190061569213867,1.1586040258407593,-1.5470503568649292
1714065802894981000,4.377981201171875,1.2430438995361328,2.2799177169799805,1.326572060585022
1714065802904861400,4.387861328125,1.2192134857177734,-1.8460464477539062,1.0788222551345825
1714065802914740700,4.39774072265625,-0.9603672027587891,-1.9366395473480225,2.446337938308716
1714065802924619500,4.40761962890625,3.221798896789551,-0.22620901465415955,2.0333333015441895
1714065802934499000,4.4174990234375,1.5899715423583984,2.549597978591919,-2.096013069152832
1714065802944379400,4.42737939453125,-4.225590229034424,0.5724175572395325,0.1455957442522049
1714065802954259000,4.437259033203125,-1.485499382019043,1.2185466289520264,0.0763050764799118
1714065802964137700,4.4471376953125,-1.8057661056518555,1.0675842761993408,-2.3902432918548584
1714065802974017300,4.457017333984375,-4.10291051864624,1.9378197193145752,0.8275451064109802
1714065802983897600,4.466897705078125,5.5095672607421875,-1.9012117385864258,2.069072723388672
1714065802993777200,4.476777099609375,5.877021789550781,0.7653976082801819,2.795609951019287
1714065803003655700,4.48665576171875,-2.2467355728149414,-0.22770819067955017,-2.3428757190704346
1714065803013535200,4.49653515625,-1.8100547790527344,1.7633252143859863,0.1950508952140808
1714065803023415600,4.50641552734375,0.2944059371948242,-0.47415778040885925,-0.8924064636230469
1714065803033295000,4.516295166015625,-3.324995994567871,-0.49540287256240845,2.1838974952697754
1714065803043174000,4.526173828125,3.178438186645508,3.899792194366455,0.12652036547660828
1714065803053053400,4.536053466796875,-2.1036972999572754,0.4299350082874298,-1.9611616134643555
1714065803062933800,4.545933837890625,-4.380764007568359,-0.539351224899292,1.1301103830337524
1714065803072813300,4.555813232421875,5.763092041015625,0.3329828679561615,1.0722906589508057
1714065803082691800,4.56569189453125,1.7239322662353516,-0.3766407370567322,-3.036165237426758
1714065803092571600,4.575571533203125,-6.698071479797363,0.0011362433433532715,1.1163582801818848
1714065803102451700,4.58545166015625,4.736442565917969,2.578108072280884,1.0828109979629517
1714065803112331300,4.595331298828125,1.1496734619140625,-1.0906696319580078,0.9217380881309509
1714065803122210000,4.6052099609375,0.44359302520751953,1.6211551427841187,1.605623722076416
1714065803132089600,4.615089599609375,0.6285209655761719,0.39407777786254883,-1.5579482316970825
1714065803141970000,4.624969970703125,-2.2624406814575195,-0.5268003940582275,0.26615196466445923
1714065803151849500,4.634849365234375,4.396529197692871,-1.6588177680969238,4.63661003112793
1714065803161728300,4.644728271484375,4.204056739807129,0.9630953669548035,1.5351271629333496
1714065803171607800,4.65460791015625,0.04938983917236328,1.0160267353057861,-2.9859628677368164
1714065803181488000,4.664488037109375,-7.522659778594971,1.1979645490646362,-0.41789740324020386
1714065803191367700,4.67436767578125,-1.0938282012939453,2.3739092350006104,-0.5051629543304443
1714065803201246200,4.68424609375,-1.9834623336791992,-0.4302237629890442,0.19404327869415283
1714065803211125800,4.694125732421875,-1.922898292541504,-2.409010887145996,0.4601805806159973
1714065803221006000,4.704006103515625,6.976957321166992,2.963048219680786,0.8702807426452637
1714065803230885600,4.7138857421875,-5.797501564025879,0.8684389591217041,-1.2108426094055176
1714065803240764200,4.72376416015625,2.6317129135131836,1.4701138734817505,0.7812153697013855
1714065803250644000,4.73364404296875,4.327287673950195,-0.3425831198692322,0.5678246021270752
1714065803260524300,4.743524169921875,-4.238891124725342,-0.12162396311759949,1.3793001174926758
1714065803270403600,4.753403564453125,5.937315940856934,0.3596300780773163,2.7006561756134033
1714065803280282400,4.763282470703125,1.7799615859985352,-1.6923751831054688,2.39381742477417
1714065803290162000,4.773161865234375,0.058989524841308594,1.843613624572754,-0.8858378529548645
1714065803300042200,4.783042236328125,-4.468340873718262,3.082991361618042,-1.6136993169784546
1714065803309921800,4.792921875,-1.7939634323120117,1.3237979412078857,-2.293767213821411
1714065803319800600,4.802800537109375,-6.447052478790283,-1.9711005687713623,1.2540326118469238
1714065803329680100,4.81268017578125,3.484929084777832,1.2491059303283691,1.2508025169372559
1714065803339560400,4.822560546875,1.036595344543457,2.5340793132781982,0.09411430358886719
1714065803349440000,4.83243994140625,-0.7290620803833008,-0.6982097625732422,-0.04287007451057434
1714065803359318500,4.842318603515625,7.647466659545898,-0.11151081323623657,1.139570713043213
1714065803369198000,4.852197998046875,-0.39351654052734375,-0.35888731479644775,-0.5135179162025452
1714065803379078400,4.862078369140625,-4.973490238189697,-0.5543698072433472,1.6542205810546875
1714065803388958000,4.8719580078125,3.20255184173584,1.1611278057098389,0.9504948854446411
1714065803398836700,4.881836669921875,-0.9125614166259766,1.6204837560653687,-0.4973789155483246
1714065803408716300,4.89171630859375,-5.1816911697387695,2.425060749053955,-1.2933647632598877
1714065803418596600,4.9015966796875,-1.0806217193603516,-0.6168662905693054,-1.6294552087783813
1714065803428476200,4.91147607421875,-2.4305896759033203,0.7613663077354431,1.499231219291687
1714065803438354700,4.921354736328125,6.678310394287109,0.8137111663818359,4.264989376068115
1714065803448234200,4.931234130859375,1.8951683044433594,-0.17998912930488586,-0.39618587493896484
1714065803458114600,4.941114501953125,-1.8959283828735352,2.7547647953033447,-0.6010597944259644
1714065803467994000,4.950994140625,-2.4210805892944336,1.0856757164001465,-0.6248886585235596
1714065803477873000,4.960872802734375,-0.6125402450561523,-2.1323599815368652,-0.08184388279914856
1714065803487752400,4.97075244140625,6.11338996887207,1.6378675699234009,4.013896942138672
1714065803497632800,4.9806328125,2.6988143920898438,1.5954710245132446,-1.8249013423919678
1714065803507512300,4.99051220703125,-4.004767417907715,-0.6556996703147888,-1.091268539428711
1714065803517390800,5.000390869140625,-4.398683071136475,0.9153350591659546,0.9277507662773132
1714065803527270700,5.010270751953125,1.0556936264038086,2.1040711402893066,-1.6506292819976807
1714065803537150700,5.020150634765625,-2.5059103965759277,-2.9152276515960693,1.3290992975234985
1714065803547030300,5.0300302734375,7.004216194152832,-0.47739410400390625,3.3226826190948486
1714065803556909000,5.039908935546875,5.288751602172852,-0.28618890047073364,0.8762490749359131
1714065803566788600,5.04978857421875,-0.2888679504394531,2.838059425354004,-2.0745670795440674
1714065803576669000,5.0596689453125,-7.446553707122803,-0.4522923231124878,-0.20808516442775726
1714065803586548500,5.069548583984375,-1.8368101119995117,0.049189478158950806,-0.5529662370681763
1714065803596427300,5.07942724609375,-2.9665074348449707,0.5144498348236084,1.0431506633758545
1714065803606306600,5.089306640625,2.6503448486328125,1.1778113842010498,2.0128135681152344
1714065803616187100,5.099187255859375,-2.3945069313049316,-0.14168232679367065,-1.2678706645965576
1714065803626066400,5.10906640625,-5.463752269744873,1.959450125694275,0.036283329129219055
1714065803635945200,5.1189453125,7.866177558898926,0.3591432273387909,-0.5411325693130493
1714065803645824800,5.12882470703125,-0.6979093551635742,-2.135836601257324,2.7503645420074463
1714065803655705000,5.138705078125,2.3072681427001953,-0.7894456386566162,3.1054604053497314
1714065803665584600,5.148584716796875,1.1621179580688477,1.1126545667648315,-0.6484715342521667
1714065803675463200,5.158463134765625,-1.2000961303710938,1.060429573059082,-0.4655998945236206
1714065803685343000,5.168343017578125,-2.214789390563965,1.6425527334213257,-0.38466471433639526
1714065803695223300,5.178223388671875,1.619847297668457,-0.012861460447311401,-1.3074004650115967
1714065803705102600,5.1881025390625,2.6082210540771484,1.1610883474349976,4.378658294677734
1714065803714981400,5.1979814453125,-0.09947967529296875,1.6600457429885864,0.8555922508239746
1714065803724861000,5.20786083984375,-2.506093978881836,-1.8192564249038696,-0.09895408153533936
1714065803734741200,5.2177412109375,5.151866912841797,0.33465930819511414,0.3041950762271881
1714065803744620800,5.227620849609375,0.19377422332763672,-0.6720459461212158,-2.4083871841430664
1714065803754499600,5.23749951171875,-4.047574520111084,0.55170738697052,0.6505342125892639
1714065803764379100,5.247379150390625,4.732038497924805,1.5708640813827515,2.7982120513916016
1714065803774259500,5.257259521484375,-0.3345155715942383,2.494760036468506,-1.9902856349945068
1714065803784139000,5.267138916015625,-6.632083892822266,0.4242003858089447,0.3414282202720642
1714065803794017500,5.277017578125,-0.006766319274902344,-0.8264031410217285,0.9921959042549133
1714065803803897000,5.28689697265625,2.4435062408447266,0.040854841470718384,0.1826765388250351
1714065803813777400,5.29677734375,-0.2653532028198242,-0.6526839733123779,1.252455234527588
1714065803823657000,5.306656982421875,3.8309669494628906,2.3622307777404785,1.0929980278015137
1714065803833535700,5.31653564453125,-1.910909652709961,0.6407256722450256,-1.6758477687835693
1714065803843415300,5.326415283203125,-3.9961514472961426,-0.32828980684280396,1.1164777278900146
1714065803853295600,5.336295654296875,0.13946533203125,1.7979471683502197,-1.5501693487167358
1714065803863175200,5.346175048828125,-3.846573829650879,-0.6769126653671265,0.24416828155517578
1714065803873053700,5.3560537109375,7.602323532104492,-0.7499876022338867,4.593453407287598
1714065803882933200,5.365933349609375,2.42172908782959,0.519554615020752,0.6052248477935791
1714065803892813600,5.3758134765625,-0.5809297561645508,0.6468240022659302,-2.8960518836975098
1714065803902693000,5.385693115234375,-3.658196449279785,1.2229530811309814,0.42768195271492004
1714065803912572000,5.395572021484375,0.4364347457885742,-0.5326645970344543,-1.1777414083480835
1714065803922451500,5.405451416015625,-3.239419937133789,0.5283526182174683,2.729194164276123
1714065803932331800,5.415331787109375,-0.7714633941650391,0.8673019409179688,1.6719508171081543
1714065803942211300,5.42521142578125,-0.61993408203125,-0.6664948463439941,-1.1520965099334717
1714065803952089900,5.43508984375,-2.2967190742492676,2.8068771362304688,-0.2826617360115051
1714065803961969700,5.4449697265625,5.217487335205078,-0.39815592765808105,-0.4078437089920044
1714065803971849700,5.454849609375,0.6406888961791992,-1.6680270433425903,2.873623847961426
1714065803981729300,5.464729248046875,4.918868064880371,-0.4272477328777313,3.0475943088531494
1714065803991608000,5.474608154296875,1.5900812149047852,1.4596192836761475,-1.3714181184768677
1714065804001487600,5.484487548828125,-6.157642364501953,0.007110565900802612,0.6936801075935364
1714065804011368000,5.494367919921875,1.1341323852539062,3.2637813091278076,-0.35331326723098755
1714065804021247500,5.50424755859375,-2.930250644683838,1.838444709777832,-0.46699798107147217
1714065804031126000,5.5141259765625,-5.288276672363281,-2.0845048427581787,0.9663495421409607
1714065804041005600,5.524005615234375,6.459970474243164,0.14637991786003113,1.1909518241882324
1714065804050886100,5.53388623046875,2.9841156005859375,0.20694634318351746,-0.9416549205780029
1714065804060765400,5.543765380859375,-3.230471611022949,0.04041147232055664,-1.0086588859558105
1714065804070644200,5.553644287109375,1.8296289443969727,1.265853762626648,-0.7819086313247681
1714065804080523800,5.563523681640625,-3.3358545303344727,1.1818139553070068,1.3333441019058228
1714065804090404000,5.573404052734375,-0.04509925842285156,-0.673958420753479,2.3194186687469482
1714065804100283600,5.58328369140625,1.3810625076293945,-0.2563336193561554,0.9857887029647827
1714065804110162200,5.593162109375,-0.047636985778808594,2.212918758392334,-0.22624260187149048
1714065804120042000,5.6030419921875,2.834085464477539,0.7630082368850708,-1.2773492336273193
1714065804129922300,5.61292236328125,-4.311301231384277,-1.1732170581817627,0.5388073921203613
1714065804139801900,5.6228017578125,2.8305320739746094,0.5008496046066284,2.2269234657287598
1714065804149680400,5.632680419921875,-1.494009017944336,1.610741138458252,0.18151581287384033
1714065804159560000,5.642559814453125,-0.9339590072631836,-0.23674550652503967,0.6856304407119751
1714065804169440300,5.652440185546875,4.567882537841797,0.9567141532897949,1.7091854810714722
1714065804179319800,5.66231982421875,0.6380062103271484,1.228279709815979,-1.8438668251037598
1714065804189198300,5.6721982421875,-8.41273307800293,-0.886181116104126,0.7282661199569702
1714065804199078100,5.682078125,3.6678972244262695,2.3177242279052734,3.1782193183898926
1714065804208958500,5.69195849609375,0.4442720413208008,-1.1180121898651123,1.6616430282592773
1714065804218837800,5.701837646484375,-4.837348937988281,0.3081080913543701,2.727329730987549
1714065804228716500,5.711716552734375,3.7069168090820312,-0.3498273491859436,4.011568546295166
1714065804238596000,5.72159619140625,3.5899782180786133,-0.3292948305606842,1.7240687608718872
1714065804248476400,5.731476318359375,-4.027796745300293,0.2322293221950531,2.6008212566375732
1714065804258356000,5.74135595703125,3.487513542175293,0.9646802544593811,3.6478211879730225
1714065804268234800,5.75123486328125,-29.05565071105957,10.890925407409668,42.770965576171875
1714065804278114300,5.7611142578125,14.31134033203125,-5.89544153213501,76.36504364013672
1714065804287994600,5.77099462890625,25.543014526367188,-58.951480865478516,51.66178512573242
1714065804297874200,5.780874267578125,-1.8306565284729004,-31.704896926879883,-16.359254837036133
1714065804307752700,5.790752685546875,14.128963470458984,-35.94024658203125,-18.48375129699707
1714065804317632300,5.80063232421875,-10.281055450439453,-17.650510787963867,-7.593443870544434
1714065804327512600,5.8105126953125,-36.3848762512207,-13.913041114807129,-5.152035713195801
1714065804337392000,5.82039208984375,-2.934457302093506,-14.082599639892578,3.2762863636016846
1714065804347271000,5.83027099609375,-20.231849670410156,-11.813002586364746,13.612204551696777
1714065804357150500,5.840150390625,-10.533791542053223,-13.56039047241211,24.62717628479004
1714065804367030800,5.85003076171875,-19.870506286621094,-20.195192337036133,3.0417113304138184
1714065804376910300,5.859910400390625,-6.03226375579834,-19.561872482299805,7.560077667236328
1714065804386788900,5.869788818359375,11.461447715759277,-17.73017692565918,12.145842552185059
1714065804396668400,5.87966845703125,-8.488590240478516,-19.856966018676758,4.135583877563477
1714065804406548700,5.889548828125,-11.803910255432129,-18.389427185058594,3.016704559326172
1714065804416428300,5.89942822265625,-17.14977264404297,-17.217920303344727,6.54966402053833
1714065804426307000,5.90930712890625,-11.302507400512695,-18.2871036529541,9.744803428649902
1714065804436186600,5.9191865234375,4.890191078186035,-20.171066284179688,20.717182159423828
1714065804446067000,5.92906689453125,-42.560604095458984,-3.5022807121276855,11.409624099731445
1714065804455946500,5.938946533203125,-14.031330108642578,-27.514509201049805,1.8183631896972656
1714065804465825000,5.948824951171875,-15.791056632995605,-19.765443801879883,-1.353912591934204
1714065804475704600,5.95870458984375,12.308484077453613,-19.699817657470703,0.7023282051086426
1714065804485585000,5.9685849609375,0.2836475372314453,-16.03321647644043,2.194823741912842
1714065804495464400,5.97846435546875,0.8805789947509766,-8.182010650634766,0.6984191536903381
1714065804505343200,5.98834326171875,-15.663095474243164,0.9262831211090088,3.040855884552002
1714065804515222800,5.998222900390625,-9.530998229980469,5.278918743133545,16.383346557617188
1714065804525103000,6.00810302734375,51.00251388549805,-51.47395706176758,-2.3929290771484375
1714065804534982700,6.017982666015625,-12.760571479797363,-10.40638542175293,2.0836875438690186
1714065804544861200,6.027861083984375,-9.928982734680176,-19.371923446655273,-5.775836944580078
1714065804554740700,6.03774072265625,-17.015588760375977,-3.3406131267547607,0.1720033884048462
1714065804564621000,6.04762109375,-10.319416999816895,-3.8795647621154785,-2.922043561935425
1714065804574500600,6.05750048828125,-9.455997467041016,-0.6910278797149658,-0.5391431450843811
1714065804584379400,6.06737939453125,-9.350414276123047,-0.9034039974212646,-0.7957649827003479
1714065804594259000,6.077259033203125,-9.284592628479004,-1.1926459074020386,-1.1072765588760376
1714065804604139300,6.08713916015625,-9.225547790527344,-1.4551892280578613,-1.378732681274414
1714065804614018800,6.097018798828125,-9.116644859313965,-1.709223747253418,-1.6206345558166504
1714065804623897300,6.1068974609375,-8.98762321472168,-1.9397670030593872,-1.8672471046447754
1714065804633777000,6.11677685546875,-8.851524353027344,-2.244264602661133,-2.1053247451782227
1714065804643657200,6.1266572265625,-8.72883415222168,-2.5405285358428955,-2.3451461791992188
1714065804653536800,6.136536865234375,-8.561320304870605,-2.7825331687927246,-2.53031063079834
1714065804663415600,6.14641552734375,-8.365235328674316,-3.0222275257110596,-2.7117769718170166
1714065804673295000,6.156295166015625,-8.17844295501709,-3.3260393142700195,-2.9094245433807373
1714065804683175400,6.166175537109375,-7.979178428649902,-3.578707218170166,-3.0696775913238525
1714065804693055000,6.176054931640625,1.7388601303100586,-24.731203079223633,-24.251371383666992
1714065804702933500,6.18593359375,4.087264060974121,4.316613674163818,38.113121032714844
1714065804712813300,6.195813232421875,4.7274932861328125,-26.6876163482666,41.2559928894043
1714065804722693400,6.205693359375,-31.439937591552734,-13.762022018432617,7.394768714904785
1714065804732573000,6.215572998046875,-1.9792027473449707,-11.061981201171875,-2.57796573638916
1714065804742451500,6.225451416015625,-8.667272567749023,-5.616596698760986,-1.2274978160858154
1714065804752331000,6.2353310546875,-7.963655471801758,-4.227177619934082,-0.985546350479126
1714065804762211300,6.24521142578125,18.1949462890625,-1.3986157178878784,17.76871109008789
1714065804772091000,6.2550908203125,-8.247599601745605,-1.0657703876495361,-4.902091026306152
1714065804781969400,6.264969482421875,-7.884688377380371,-1.11288321018219,-4.868014812469482
1714065804791849000,6.274848876953125,-7.833550453186035,-1.1857638359069824,-4.829794883728027
1714065804801729300,6.284729248046875,-7.802217960357666,-1.2409440279006958,-4.799173355102539
1714065804811608800,6.29460888671875,-7.7866315841674805,-1.3225061893463135,-4.697717189788818
1714065804821487600,6.304487548828125,22.522872924804688,-7.258396625518799,9.797093391418457
1714065804831367200,6.3143671875,-9.379749298095703,-1.9931066036224365,0.767512321472168
1714065804841247500,6.32424755859375,-7.843985080718994,-4.53299617767334,-0.14724743366241455
1714065804851127000,6.334126953125,-8.56640911102295,-2.287731647491455,3.2761411666870117
1714065804861005600,6.344005615234375,-13.602128028869629,-18.179285049438477,13.75403881072998
1714065804870885000,6.353885009765625,-11.062838554382324,-5.42301082611084,-3.949453592300415
1714065804880765400,6.363765380859375,-9.134895324707031,-1.5884404182434082,-0.995958685874939
1714065804890645000,6.37364501953125,-8.89645767211914,-1.801154375076294,-1.1315511465072632
1714065804900523800,6.383523681640625,-8.250208854675293,-3.5128695964813232,-2.6558749675750732
1714065804910403300,6.3934033203125,2.2723560333251953,-9.421182632446289,12.154620170593262
1714065804920283600,6.40328369140625,-4.630977630615234,-2.9840574264526367,-1.0078284740447998
1714065804930163200,6.4131630859375,5.330111503601074,-3.069976329803467,1.8892415761947632
1714065804940041700,6.423041748046875,6.584525108337402,-5.767187118530273,6.122215270996094
1714065804949921300,6.43292138671875,-7.631338596343994,-3.6469454765319824,1.799556016921997
1714065804959801600,6.442801513671875,6.1337995529174805,-4.309792995452881,3.132232189178467
1714065804969681200,6.45268115234375,-1.8341541290283203,-4.10080623626709,2.570634126663208
1714065804979560000,6.462559814453125,1.2193470001220703,-3.5774121284484863,3.1870193481445312
1714065804989439500,6.472439453125,1.4751710891723633,-3.7612404823303223,3.2294199466705322
1714065804999319800,6.48231982421875,0.27173519134521484,-3.8764498233795166,2.95821475982666
1714065805009199000,6.49219921875,0.7578277587890625,-3.4385690689086914,3.217806339263916
1714065805019078000,6.502077880859375,0.6960563659667969,-3.3022265434265137,2.930335521697998
1714065805028957400,6.51195751953125,0.9304018020629883,-3.0248498916625977,1.6405718326568604
1714065805038837800,6.521837646484375,0.7917213439941406,-2.7326529026031494,-1.8914223909378052
1714065805048717300,6.53171728515625,0.6106224060058594,-2.669497013092041,-1.5455322265625
1714065805058596000,6.54159619140625,0.7714147567749023,-2.6705875396728516,-1.3087341785430908
1714065805068475600,6.5514755859375,0.9269857406616211,-2.590860605239868,-1.3781664371490479
1714065805078356000,6.56135595703125,0.6332998275756836,-2.5587191581726074,-1.4389381408691406
1714065805088235300,6.5712353515625,0.7845363616943359,-2.5723233222961426,-1.4745467901229858
1714065805098114000,6.581114013671875,0.8540973663330078,-2.519256114959717,-1.3716387748718262
1714065805107993600,6.59099365234375,0.787353515625,-2.0307931900024414,-1.017337441444397
1714065805117874000,6.6008740234375,0.6133975982666016,-1.4046502113342285,-0.7231214046478271
1714065805127753500,6.61075341796875,0.8100347518920898,-1.346055269241333,-0.6039732694625854
1714065805137632300,6.62063232421875,0.767359733581543,-1.3998562097549438,-0.6497767567634583
1714065805147511600,6.630511474609375,0.7223968505859375,-1.400864601135254,-0.638276994228363
1714065805157392000,6.640391845703125,0.7921829223632812,-1.3303385972976685,-0.5789321660995483
1714065805167271400,6.650271484375,0.7495546340942383,-1.3936115503311157,-0.6560811400413513
1714065805177150200,6.660150146484375,0.7428617477416992,-1.363701343536377,-0.6159082055091858
1714065805187029800,6.67002978515625,0.7505092620849609,-1.3456947803497314,-0.609380841255188
1714065805196910000,6.67991015625,0.7509632110595703,-1.3802717924118042,-0.6409679651260376
1714065805206789600,6.68978955078125,0.7490501403808594,-1.3241255283355713,-0.5961681604385376
1714065805216668200,6.699668212890625,0.742365837097168,-1.3373748064041138,-0.6016306281089783
1714065805226547700,6.709547607421875,0.733302116394043,-1.3864126205444336,-0.6380133628845215
1714065805236428000,6.719427978515625,0.738591194152832,-1.325474500656128,-0.5931092500686646
1714065805246307600,6.7293076171875,0.7581949234008789,-1.3243916034698486,-0.588915228843689
1714065805256186400,6.739186279296875,0.7299747467041016,-1.3614096641540527,-0.6324940919876099
1714065805266066000,6.74906591796875,0.7304954528808594,-1.3315796852111816,-0.5899917483329773
1714065805275946200,6.7589462890625,0.7286205291748047,-1.3303695917129517,-0.5906934142112732
1714065805285825800,6.76882568359375,0.7291536331176758,-1.3388266563415527,-0.6176626086235046
1714065805295704300,6.778704345703125,0.7248868942260742,-1.3017765283584595,-0.579973578453064
1714065805305583900,6.788583984375,0.7230405807495117,-1.322245717048645,-0.6141340136528015
1714065805315464200,6.798464111328125,0.72119140625,-1.3211705684661865,-0.6027230024337769
1714065805325343700,6.80834375,0.7312965393066406,-1.2890524864196777,-0.5747355222702026
1714065805335222500,6.818222412109375,0.7222709655761719,-1.2952245473861694,-0.5921921730041504
1714065805345102000,6.82810205078125,0.7108640670776367,-1.310821533203125,-0.6000527143478394
1714065805354982400,6.837982421875,0.7186069488525391,-1.2859010696411133,-0.5768344402313232
1714065805364862000,6.847862060546875,0.7239208221435547,-1.3062975406646729,-0.5774571895599365
1714065805374740500,6.857740478515625,0.6981964111328125,-1.2957096099853516,-0.5853545665740967
1714065805384620000,6.8676201171875,0.7202854156494141,-1.2802597284317017,-0.5741273760795593
1714065805394500400,6.877500244140625,0.7112665176391602,-1.2935056686401367,-0.5962498188018799
1714065805404380000,6.8873798828125,0.699894905090332,-1.282949447631836,-0.5824951529502869
1714065805414258700,6.8972587890625,0.7172107696533203,-1.2676433324813843,-0.5663867592811584
1714065805424138200,6.90713818359375,0.6986684799194336,-1.2858089208602905,-0.5934168100357056
1714065805434018600,6.9170185546875,0.692112922668457,-1.2824361324310303,-0.5821694135665894
1714065805443897900,6.92689794921875,0.6998958587646484,-1.2599667310714722,-0.5565093755722046
1714065805453776600,6.936776611328125,0.7028827667236328,-1.261434555053711,-0.5715113878250122
1714065805463656200,6.94665625,0.7034807205200195,-1.265286922454834,-0.5770355463027954
1714065805473536500,6.95653662109375,0.6873607635498047,-1.2595770359039307,-0.5538884997367859
1714065805483416000,6.966416015625,0.6927614212036133,-1.2704861164093018,-0.5761735439300537
1714065805493294600,6.976294677734375,0.6886014938354492,-1.2432701587677002,-0.5672451853752136
1714065805503174400,6.98617431640625,0.6820716857910156,-1.2376151084899902,-0.5536751747131348
1714065805513054700,6.9960546875,0.6659641265869141,-1.2309569120407104,-0.5583640933036804
1714065805522934000,7.00593408203125,0.6665925979614258,-1.2078192234039307,-0.5441412329673767
1714065805532812800,7.015812744140625,0.6577949523925781,-1.1756497621536255,-0.5254470705986023
1714065805542692400,7.0256923828125,0.6397256851196289,-1.1722663640975952,-0.5306064486503601
1714065805552572700,7.03557275390625,0.6337308883666992,-1.1548140048980713,-0.523908793926239
1714065805562452200,7.0454521484375,0.6160650253295898,-1.1376584768295288,-0.49847763776779175
1714065805572330800,7.055330810546875,0.6057510375976562,-1.109010934829712,-0.5039750933647156
1714065805582210300,7.065210205078125,0.6073999404907227,-1.083299994468689,-0.47889891266822815
1714065805592090600,7.075090576171875,0.5972328186035156,-1.07439124584198,-0.47765979170799255
1714065805601970200,7.08497021484375,0.5778188705444336,-1.0703389644622803,-0.47644123435020447
1714065805611849000,7.094848876953125,0.565791130065918,-1.035743236541748,-0.449357271194458
1714065805621728500,7.104728515625,0.5610275268554688,-1.0040781497955322,-0.4462662935256958
1714065805631608800,7.11460888671875,0.5516414642333984,-1.0059049129486084,-0.45745378732681274
1714065805641488400,7.12448828125,0.5471324920654297,-0.9819170832633972,-0.4449128806591034
1714065805651367000,7.134366943359375,0.5309200286865234,-0.9700998067855835,-0.42776021361351013
1714065805661246500,7.14424658203125,0.5243864059448242,-0.9560125470161438,-0.43208107352256775
1714065805671126800,7.154126708984375,0.5179719924926758,-0.9352096319198608,-0.4174962043762207
1714065805681006300,7.16400634765625,0.5140199661254883,-0.9218158721923828,-0.4078627824783325
1714065805690885000,7.173885009765625,0.5054216384887695,-0.9014697670936584,-0.4149819612503052
1714065805700764700,7.1837646484375,0.4969625473022461,-0.8908791542053223,-0.38891083002090454
1714065805710645000,7.19364501953125,0.4815807342529297,-0.8757562637329102,-0.38446182012557983
1714065805720524500,7.203524658203125,0.4711790084838867,-0.8609981536865234,-0.39197102189064026
1714065805730403000,7.213403076171875,0.4656505584716797,-0.8369559645652771,-0.36639630794525146
1714065805740282600,7.22328271484375,0.45314693450927734,-0.8345019221305847,-0.3623223304748535
1714065805750163000,7.233162841796875,0.44556140899658203,-0.8156089782714844,-0.37950390577316284
1714065805760042500,7.24304248046875,0.44281959533691406,-0.8065562844276428,-0.3493227958679199
1714065805769921300,7.25292138671875,0.4330577850341797,-0.7834155559539795,-0.36448776721954346
1714065805779800600,7.262800537109375,0.4305229187011719,-0.7724359035491943,-0.34407949447631836
1714065805789681000,7.272680908203125,0.41626548767089844,-0.752335786819458,-0.3216572105884552
1714065805799560400,7.282560546875,0.41637325286865234,-0.7443414926528931,-0.33492159843444824
1714065805809439200,7.292439208984375,0.4188213348388672,-0.745787501335144,-0.3407815396785736
1714065805819318800,7.30231884765625,0.3976869583129883,-0.71895432472229,-0.3183002471923828
1714065805829199000,7.31219921875,0.38632678985595703,-0.7043391466140747,-0.3127869665622711
1714065805839078700,7.32207861328125,0.38222312927246094,-0.7088010311126709,-0.31689655780792236
1714065805848957200,7.331957275390625,0.36641979217529297,-0.6803436279296875,-0.29728156328201294
1714065805858836700,7.341836669921875,0.3720674514770508,-0.6711939573287964,-0.30153539776802063
1714065805868717000,7.351717041015625,0.3729076385498047,-0.6785615682601929,-0.29394733905792236
1714065805878596600,7.3615966796875,0.35725879669189453,-0.64589923620224,-0.28177744150161743
1714065805888475400,7.371475341796875,0.3489255905151367,-0.6466253995895386,-0.2885294258594513
1714065805898355000,7.38135498046875,0.3430910110473633,-0.6215538382530212,-0.2739866077899933
1714065805908235300,7.3912353515625,0.3397064208984375,-0.6250394582748413,-0.27392032742500305
1714065805918114800,7.40111474609375,0.3434429168701172,-0.6143416166305542,-0.26914677023887634
1714065805927993300,7.410993408203125,0.3329896926879883,-0.5991134643554688,-0.2715153992176056
1714065805937873000,7.420872802734375,0.3203582763671875,-0.5864930152893066,-0.2550109624862671
1714065805947753200,7.430753173828125,0.32677173614501953,-0.5740826725959778,-0.24819837510585785
1714065805957632800,7.4406328125,0.3166027069091797,-0.5714107751846313,-0.25091612339019775
1714065805967511600,7.450511474609375,0.3113126754760742,-0.5593665242195129,-0.24652604758739471
1714065805977391000,7.46039111328125,0.3061037063598633,-0.5591787099838257,-0.24209396541118622
1714065805987271400,7.470271484375,0.29392242431640625,-0.53780597448349,-0.2402050495147705
1714065805997150700,7.480150634765625,0.28900909423828125,-0.5333839654922485,-0.24058657884597778
1714065806007029500,7.490029541015625,0.28888511657714844,-0.5124408006668091,-0.22695186734199524
1714065806016909000,7.499908935546875,0.27463817596435547,-0.5177426338195801,-0.23237791657447815
1714065806026789400,7.509789306640625,0.2794618606567383,-0.4995293915271759,-0.21405614912509918
1714065806036669000,7.5196689453125,0.2912721633911133,-0.4957447648048401,-0.21969714760780334
1714065806046547500,7.52954736328125,0.26992321014404297,-0.494261771440506,-0.2181815654039383
1714065806056427300,7.53942724609375,0.2654094696044922,-0.4786781072616577,-0.21904543042182922
1714065806066307600,7.5493076171875,0.2539091110229492,-0.4751278758049011,-0.20341181755065918
1714065806076187000,7.559186767578125,0.2661428451538086,-0.46221694350242615,-0.20216767489910126
1714065806086065700,7.569065673828125,0.26169681549072266,-0.454345166683197,-0.210361048579216
1714065806095945200,7.5789453125,0.25261592864990234,-0.4348335266113281,-0.19252166152000427
1714065806105825500,7.588825439453125,0.2530984878540039,-0.43907299637794495,-0.19134312868118286
1714065806115705000,7.598705078125,0.2441568374633789,-0.43382489681243896,-0.19489258527755737
1714065806125583600,7.60858349609375,0.24713802337646484,-0.4192473590373993,-0.1843736469745636
1714065806135463200,7.618463134765625,0.22181987762451172,-0.42610296607017517,-0.18108955025672913
1714065806145343500,7.628343505859375,0.22988128662109375,-0.409415602684021,-0.18010134994983673
1714065806155223000,7.63822314453125,0.2283935546875,-0.4046611785888672,-0.1768915057182312
1714065806165101800,7.648101806640625,0.23163509368896484,-0.3905690908432007,-0.17832744121551514
1714065806174981400,7.6579814453125,0.22069931030273438,-0.39554524421691895,-0.16796837747097015
1714065806184861700,7.66786181640625,0.21465587615966797,-0.37925049662590027,-0.15789814293384552
1714065806194741200,7.6777412109375,0.2157745361328125,-0.37499821186065674,-0.1549420803785324
1714065806204619800,7.687619873046875,0.20745849609375,-0.36387041211128235,-0.15438947081565857
1714065806214499300,7.697499267578125,0.2039937973022461,-0.3717615306377411,-0.1563165783882141
1714065806224379600,7.707379638671875,0.20293903350830078,-0.3582168221473694,-0.1487947404384613
1714065806234259200,7.71725927734375,0.1948404312133789,-0.34501421451568604,-0.15552347898483276
1714065806244138000,7.727137939453125,0.2033548355102539,-0.3483944833278656,-0.13859812915325165
1714065806254017300,7.737017333984375,0.1905374526977539,-0.3446556329727173,-0.15008865296840668
1714065806263897900,7.74689794921875,0.18264198303222656,-0.31979119777679443,-0.1331372708082199
1714065806273777200,7.756777099609375,0.1842966079711914,-0.3282998204231262,-0.13765618205070496
1714065806283656000,7.766656005859375,0.17415428161621094,-0.32724976539611816,-0.14692476391792297
1714065806293535500,7.776535400390625,0.1830148696899414,-0.31915444135665894,-0.1301427185535431
1714065806303415800,7.786415771484375,0.17760276794433594,-0.3088417649269104,-0.13718059659004211
1714065806313295400,7.79629541015625,0.16992855072021484,-0.301169753074646,-0.1252693384885788
1714065806323174000,7.806173828125,0.17650413513183594,-0.29821717739105225,-0.13227342069149017
1714065806333053400,7.816053466796875,0.15472126007080078,-0.2953137159347534,-0.1251523494720459
1714065806342933800,7.825933837890625,0.15684127807617188,-0.2924584746360779,-0.11803309619426727
1714065806352813300,7.835813232421875,0.16363906860351562,-0.28270500898361206,-0.11585776507854462
1714065806362692000,7.845692138671875,0.15855121612548828,-0.27782246470451355,-0.1184270977973938
1714065806372571600,7.855571533203125,0.16531944274902344,-0.26360440254211426,-0.10906566679477692
1714065806382452000,7.865451904296875,0.16255760192871094,-0.2661026120185852,-0.11398538947105408
1714065806392331500,7.87533154296875,0.1480703353881836,-0.26855912804603577,-0.1188230887055397
1714065806402210000,7.8852099609375,0.1550149917602539,-0.2521410584449768,-0.1213429868221283
1714065806412089600,7.895089599609375,0.14771652221679688,-0.24541333317756653,-0.11664121598005295
1714065806421970000,7.904969970703125,0.1452484130859375,-0.2458602488040924,-0.10966354608535767
1714065806431849500,7.914849365234375,0.14517688751220703,-0.23911991715431213,-0.10527350008487701
1714065806441728300,7.924728271484375,0.1309804916381836,-0.24438002705574036,-0.10566502809524536
1714065806451607800,7.93460791015625,0.13821125030517578,-0.2424897700548172,-0.1013416200876236
1714065806461488000,7.944488037109375,0.13354778289794922,-0.23356834053993225,-0.0993272215127945
1714065806471367700,7.95436767578125,0.13602542877197266,-0.22244137525558472,-0.09734639525413513
1714065806481246200,7.96424609375,0.13375282287597656,-0.23021459579467773,-0.09775350987911224
1714065806491125800,7.974125732421875,0.12680912017822266,-0.22608867287635803,-0.08649936318397522
1714065806501006000,7.984006103515625,0.13646316528320312,-0.20096099376678467,-0.09885742515325546
1714065806510885600,7.9938857421875,0.12476825714111328,-0.20438358187675476,-0.0899396538734436
1714065806520764200,8.00376416015625,0.13210201263427734,-0.2219931036233902,-0.06939897686243057
1714065806530643700,8.013643798828125,0.11341667175292969,-0.21341288089752197,-0.0845135748386383
1714065806540524300,8.023524169921876,0.11858463287353516,-0.202503964304924,-0.09690462052822113
1714065806550403600,8.033403564453126,0.12131214141845703,-0.19883941113948822,-0.07848459482192993
1714065806560282400,8.043282470703126,0.11928558349609375,-0.19064493477344513,-0.08862193673849106
1714065806570162000,8.053161865234374,0.10316658020019531,-0.19188624620437622,-0.07975667715072632
1714065806580042200,8.063042236328124,0.10615253448486328,-0.1767449527978897,-0.08057345449924469
1714065806589921800,8.072921875,0.10202598571777344,-0.18763458728790283,-0.07902245223522186
1714065806599800300,8.08280029296875,0.1097402572631836,-0.18421749770641327,-0.07267136871814728
1714065806609680000,8.092679931640625,0.11261558532714844,-0.1739109754562378,-0.06407203525304794
1714065806619560200,8.102560302734375,0.11308956146240234,-0.1777850240468979,-0.08151199668645859
1714065806629439700,8.112439697265625,0.10178470611572266,-0.16511504352092743,-0.07759113609790802
1714065806639318500,8.122318603515625,0.09772968292236328,-0.15971879661083221,-0.07361800968647003
1714065806649198000,8.132197998046875,0.10080623626708984,-0.17807205021381378,-0.06971105933189392
1714065806659078400,8.142078369140625,0.0897054672241211,-0.15845099091529846,-0.06586913764476776
1714065806668957700,8.151957763671875,0.0905618667602539,-0.1579916775226593,-0.06209130212664604
1714065806678836500,8.16183642578125,0.0961141586303711,-0.15518580377101898,-0.06320253014564514
1714065806688716000,8.171716064453125,0.08980083465576172,-0.1618434339761734,-0.05958683416247368
1714065806698596400,8.181596435546876,0.0812387466430664,-0.1495564579963684,-0.06062200292944908
1714065806708476000,8.191475830078126,0.08223533630371094,-0.1421826183795929,-0.056931544095277786
1714065806718354400,8.2013544921875,0.08086204528808594,-0.15141107141971588,-0.05801099166274071
1714065806728234200,8.211234130859374,0.09363842010498047,-0.14400625228881836,-0.0497734397649765
1714065806738114600,8.221114501953124,0.0897207260131836,-0.14143319427967072,-0.05568050220608711
1714065806747993900,8.230993896484375,0.08351612091064453,-0.14584773778915405,-0.054544370621442795
1714065806757872600,8.24087255859375,0.08918476104736328,-0.1266467124223709,-0.04153835400938988
1714065806767752200,8.250752197265625,0.07592582702636719,-0.13377965986728668,-0.05935361981391907
1714065806777632500,8.260632568359375,0.08172321319580078,-0.13608528673648834,-0.0487394742667675
1714065806787512000,8.270511962890625,0.08271312713623047,-0.13835148513317108,-0.042892277240753174
1714065806797390600,8.280390625,0.0719156265258789,-0.1335182636976242,-0.05362237989902496
1714065806807270100,8.290270263671875,0.06365299224853516,-0.12393921613693237,-0.038277432322502136
1714065806817150500,8.300150390625,0.07671642303466797,-0.10992933809757233,-0.032604992389678955
1714065806827030000,8.310030029296875,0.077789306640625,-0.12675747275352478,-0.038798071444034576
1714065806836908800,8.31990869140625,0.07413673400878906,-0.12447156757116318,-0.04017955809831619
1714065806846788400,8.329788330078125,0.07760810852050781,-0.11975151300430298,-0.04389217123389244
1714065806856668700,8.339668701171876,0.0810232162475586,-0.11511005461215973,-0.02882731705904007
1714065806866548000,8.3495478515625,0.0679006576538086,-0.11289921402931213,-0.032728441059589386
1714065806876426800,8.3594267578125,0.06441307067871094,-0.10613574087619781,-0.034329064190387726
1714065806886306300,8.369306396484374,0.07275581359863281,-0.11596435308456421,-0.03107653558254242
1714065806896186600,8.3791865234375,0.05977153778076172,-0.10432321578264236,-0.03729497268795967
1714065806906066200,8.389066162109375,0.06348323822021484,-0.10229288786649704,-0.04811817407608032
1714065806915944700,8.39894482421875,0.06713390350341797,-0.10265059024095535,-0.032982923090457916
1714065806925824300,8.40882421875,0.058951377868652344,-0.10300225019454956,-0.039169568568468094
1714065806935704600,8.41870458984375,0.07209396362304688,-0.10111191868782043,-0.03348207846283913
1714065806945584000,8.428584228515625,0.06147575378417969,-0.08983628451824188,-0.030361734330654144
1714065806955463000,8.438462890625,0.05809593200683594,-0.08804720640182495,-0.04365464299917221
1714065806965342500,8.448342529296875,0.059482574462890625,-0.10747567564249039,-0.030829790979623795
1714065806975222800,8.458222900390625,0.056136131286621094,-0.08420392125844955,-0.03469711169600487
1714065806985102300,8.468102294921875,0.06226158142089844,-0.09439774602651596,-0.019667338579893112
1714065806994980900,8.47798095703125,0.06357955932617188,-0.08311570435762405,-0.028548236936330795
1714065807004860400,8.4878603515625,0.05310249328613281,-0.09332762658596039,-0.025510117411613464
1714065807014740700,8.49774072265625,0.054572105407714844,-0.08206254243850708,-0.01063239574432373
1714065807024620300,8.507620361328126,0.044243812561035156,-0.07816678285598755,-0.0336708128452301
1714065807034498800,8.517498779296876,0.04350566864013672,-0.07669012993574142,-0.021012313663959503
1714065807044378600,8.527378662109374,0.05926227569580078,-0.07511980831623077,-0.013273149728775024
1714065807054258700,8.5372587890625,0.05121421813964844,-0.08770078420639038,-0.02226058766245842
1714065807064138200,8.54713818359375,0.04565238952636719,-0.0741758868098259,-0.019208990037441254
1714065807074017000,8.55701708984375,0.04960155487060547,-0.07029389590024948,-0.030334584414958954
1714065807083896600,8.566896484375,0.04406547546386719,-0.06659414619207382,-0.017731614410877228
1714065807093777000,8.57677685546875,0.05039501190185547,-0.06990028917789459,-0.021818045526742935
1714065807103656400,8.586656494140625,0.051909446716308594,-0.07091545313596725,-0.023600496351718903
1714065807113535000,8.596534912109375,0.04633617401123047,-0.06720461696386337,-0.032296352088451385
1714065807123414500,8.60641455078125,0.040854454040527344,-0.07061819732189178,-0.024367835372686386
1714065807133294800,8.616294921875,0.04488372802734375,-0.07162065804004669,-0.02846074476838112
1714065807143174400,8.62617431640625,0.04649066925048828,-0.06778030842542648,-0.018243148922920227
1714065807153053200,8.63605322265625,0.045716285705566406,-0.0664765015244484,-0.012904256582260132
1714065807162932700,8.6459326171875,0.04024696350097656,-0.06048598885536194,-0.014835268259048462
1714065807172812800,8.655812744140626,0.039577484130859375,-0.054595306515693665,-0.019088275730609894
1714065807182692400,8.6656923828125,0.04362773895263672,-0.04644860327243805,-0.027978811413049698
1714065807192571100,8.675571044921876,0.042901039123535156,-0.05020862817764282,-0.015415027737617493
1714065807202450700,8.68545068359375,0.044541358947753906,-0.05849597603082657,-0.01718577742576599
1714065807212331000,8.6953310546875,0.046154022216796875,-0.05028358846902847,-0.025988247245550156
1714065807222210600,8.70521044921875,0.04067802429199219,-0.051507025957107544,-0.01816597208380699
1714065807232089000,8.715089111328124,0.03764820098876953,-0.06448106467723846,-0.022245068103075027
1714065807241968600,8.72496875,0.04408454895019531,-0.046634234488010406,-0.009776774793863297
1714065807251849000,8.734848876953125,0.038643836975097656,-0.04791838675737381,-0.009405680000782013
1714065807261728500,8.744728515625,0.03564739227294922,-0.051535338163375854,-0.008922338485717773
1714065807271607300,8.754607177734375,0.032700538635253906,-0.045675210654735565,-0.008447077125310898
1714065807281486800,8.76448681640625,0.03921985626220703,-0.06110048294067383,-0.005625493824481964
1714065807291367200,8.7743671875,0.024442672729492188,-0.04801825433969498,-0.01226770132780075
1714065807301246500,8.78424658203125,0.031099319458007812,-0.04939772188663483,-0.004674047231674194
1714065807311125200,8.794125244140625,0.03764533996582031,-0.03886422514915466,-0.011330686509609222
1714065807321004800,8.8040048828125,0.02524852752685547,-0.04263192415237427,-0.008461032062768936
1714065807330885000,8.813885009765626,0.027182579040527344,-0.04410111904144287,-0.010466068983078003
1714065807340764700,8.8237646484375,0.036149024963378906,-0.040718913078308105,-0.007610820233821869
1714065807350643200,8.833643310546876,0.02613067626953125,-0.04457367956638336,0.004615128040313721
1714065807360522800,8.843522705078126,0.009217262268066406,-0.041301578283309937,-0.013967208564281464
1714065807370403000,8.853403076171874,0.049088478088378906,-0.042674362659454346,-0.013644814491271973
1714065807380282600,8.86328271484375,0.048270225524902344,-0.037080198526382446,0.005861345678567886
1714065807390161400,8.873161376953124,-0.013739585876464844,-0.02910652756690979,-0.031813912093639374
1714065807400041000,8.883041015625,0.05947113037109375,-0.04021786153316498,0.009064316749572754
1714065807409921300,8.89292138671875,-0.00037288665771484375,-0.03454601764678955,-0.016774781048297882
1714065807419800600,8.902800537109375,0.016115188598632812,-0.02908727526664734,0.00019229575991630554
1714065807429679400,8.912679443359375,0.025266647338867188,-0.04008035361766815,-0.016082197427749634
1714065807439559000,8.922558837890625,0.010721206665039062,-0.03923727571964264,-0.0013607032597064972
1714065807449439200,8.932439208984375,0.02466869354248047,-0.03134611248970032,-0.010428130626678467
1714065807459318800,8.94231884765625,0.01955127716064453,-0.033003270626068115,-0.0006294324994087219
1714065807469197300,8.952197265625,0.03806114196777344,-0.03698699176311493,0.006651729345321655
1714065807479076900,8.962076904296875,0.02565765380859375,-0.03148750960826874,-0.004903439432382584
1714065807488957200,8.971957275390626,0.027587890625,-0.014190077781677246,-0.004613593220710754
1714065807498836700,8.981836669921876,0.024776458740234375,-0.02084149420261383,0.00037980079650878906
1714065807508715500,8.991715576171876,0.026719093322753906,-0.027382075786590576,0.0005815662443637848
1714065807518595000,9.001594970703126,0.030983924865722656,-0.033813610672950745,-0.010990992188453674
1714065807528475400,9.011475341796874,0.02575969696044922,-0.033075347542762756,-0.003418475389480591
1714065807538354700,9.021354736328124,0.022978782653808594,-0.032348960638046265,0.0039108991622924805
1714065807548233500,9.0312333984375,0.020242691040039062,-0.02928091585636139,-0.0006545819342136383
1714065807558113000,9.041113037109374,0.015199661254882812,-0.028499558568000793,0.006745647639036179
1714065807567993300,9.050993408203125,0.012595176696777344,-0.030085384845733643,0.002132955938577652
1714065807577873000,9.060872802734375,0.01709747314453125,-0.02693641185760498,0.007013905793428421
1714065807587751400,9.07075146484375,0.016814231872558594,-0.028666943311691284,0.00004250183701515198
1714065807597631000,9.080630859375,0.014183998107910156,-0.020833194255828857,-0.006812695413827896
1714065807607511300,9.09051123046875,0.018657684326171875,-0.027373790740966797,-0.001782633364200592
1714065807617390800,9.100390869140625,0.004223823547363281,-0.017325997352600098,-0.003899022936820984
1714065807627269600,9.11026953125,0.02769756317138672,-0.014508277177810669,-0.001271761953830719
1714065807637149200,9.120149169921875,0.006051063537597656,-0.018681436777114868,0.003665924072265625
1714065807647029500,9.130029541015626,0.022431373596191406,-0.01819528639316559,-0.0032496564090251923
1714065807656908800,9.13990869140625,0.017351150512695312,-0.017717227339744568,-0.0006331950426101685
1714065807666787600,9.14978759765625,0.014711380004882812,-0.021836906671524048,0.00912085548043251
1714065807676667100,9.159667236328126,0.005053520202636719,-0.023533686995506287,0.0021143443882465363
1714065807686547500,9.16954736328125,0.0143890380859375,-0.01107698678970337,0.002405870705842972
1714065807696427000,9.179427001953124,0.011796951293945312,-0.01307174563407898,0.00033831968903541565
1714065807706305500,9.189305419921874,0.021020889282226562,-0.012560412287712097,-0.001694805920124054
1714065807716185000,9.19918505859375,0.008902549743652344,-0.009703367948532104,0.005604121834039688
1714065807726065400,9.2090654296875,0.006402015686035156,-0.01642937958240509,-0.0035792943090200424
1714065807735945000,9.218945068359375,0.015714645385742188,-0.01127229630947113,0.008578095585107803
1714065807745823700,9.22882373046875,0.01309967041015625,-0.010909587144851685,-0.0006549395620822906
1714065807755703300,9.238703369140625,0.008176803588867188,-0.008079677820205688,-0.0003154277801513672
1714065807765583600,9.24858349609375,0.019814491271972656,-0.010123983025550842,-0.0023357421159744263
1714065807775463000,9.258462890625,0.012422561645507812,-0.005071967840194702,0.00968226045370102
1714065807785341700,9.268341796875,0.005154609680175781,-0.007166773080825806,0.012201817706227303
1714065807795221200,9.27822119140625,0.0027170181274414062,-0.02335183322429657,0.0051439497619867325
1714065807805101600,9.2881015625,0.012091636657714844,-0.00383545458316803,0.007739197462797165
1714065807814981000,9.297981201171876,0.009539604187011719,-0.003477945923805237,0.00781828910112381
1714065807824859600,9.307859619140626,0.007029533386230469,-0.021960005164146423,0.007896045222878456
1714065807834739200,9.3177392578125,0.018686294555664062,-0.016710355877876282,0.005738887935876846
1714065807844619500,9.32761962890625,0.008959770202636719,0.00022245943546295166,0.0059700291603803635
1714065807854499000,9.3374990234375,0.008813858032226562,-0.0018415004014968872,0.010907579213380814
1714065807864377600,9.347377685546874,0.01102447509765625,-0.015642419457435608,0.0038712508976459503
1714065807874257400,9.35725732421875,0.003780364990234375,-0.01991519331932068,0.0017792955040931702
1714065807884137700,9.3671376953125,0.006072998046875,-0.00999152660369873,0.018437104299664497
1714065807894017000,9.37701708984375,-0.008150100708007812,-0.007295846939086914,0.018337883055210114
1714065807903895800,9.386895751953125,0.00140380859375,-0.016416147351264954,0.006587989628314972
1714065807913775400,9.396775390625,0.0060901641845703125,0.005220159888267517,0.004332050681114197
1714065807923655700,9.40665576171875,0.010699272155761719,0.0006000548601150513,0.011532433331012726
1714065807933535200,9.41653515625,-0.013017654418945312,-0.0038247108459472656,0.01390247605741024
1714065807943413800,9.426413818359375,-0.0010251998901367188,-0.0034676939249038696,0.004460085183382034
1714065807953293300,9.436293212890625,0.0037012100219726562,-0.012652084231376648,0.009418949484825134
1714065807963173600,9.446173583984375,-0.005772590637207031,-0.002730444073677063,0.009590664878487587
1714065807973053200,9.45605322265625,-0.008026123046875,-0.016516178846359253,0.007405288517475128
1714065807982931700,9.465931640625,0.00623321533203125,-0.004294663667678833,0.014673091471195221
1714065807992811500,9.4758115234375,0.0014238357543945312,-0.008756548166275024,-0.004197010770440102
1714065808002691600,9.485691650390624,-0.00330352783203125,-0.005962744355201721,0.01962294615805149
1714065808012571100,9.495571044921874,-0.0008916854858398438,-0.00804261863231659,0.012441324070096016
1714065808022450000,9.505449951171874,-0.0055866241455078125,-0.010206535458564758,0.0010270178318023682
1714065808032329500,9.51532958984375,0.5194320678710938,-0.0639093667268753,0.07559803128242493
1714065808042209800,9.525209716796875,-1.0312108993530273,0.04833365976810455,-0.06557304412126541
1714065808052089300,9.53508935546875,1.493168830871582,0.16892611980438232,0.4153370261192322
1714065808061968000,9.5449677734375,-1.5450782775878906,0.27007508277893066,0.11855518817901611
1714065808071847400,9.554847412109375,0.7995500564575195,0.1876164972782135,0.6382275819778442
1714065808081727700,9.564727783203125,-0.534459114074707,-0.09523935616016388,0.6323854923248291
1714065808091607300,9.574607177734375,0.07009696960449219,-0.31918275356292725,0.9005342125892639
1714065808101485800,9.58448583984375,-0.13814449310302734,-0.5154528617858887,1.3589669466018677
1714065808111365600,9.59436572265625,-0.9570140838623047,-0.7282838225364685,1.516952633857727
1714065808121245700,9.60424560546875,-0.5589590072631836,-0.776183545589447,0.9270869493484497
1714065808131125200,9.614125244140626,2.0799713134765625,-0.47489455342292786,0.33261194825172424
1714065808141004000,9.624004150390626,-0.4618206024169922,-0.2639111578464508,-0.37986135482788086
1714065808150883600,9.633883544921876,0.36066341400146484,-0.32789430022239685,-0.7024364471435547
1714065808160764000,9.643763916015626,2.1283445358276367,-7.279972076416016,-2.0247411727905273
1714065808170643500,9.6536435546875,1.9116735458374023,-8.197075843811035,-3.3668267726898193
1714065808180522000,9.66352197265625,-3.7796788215637207,-5.3958210945129395,-3.2903895378112793
1714065808190401500,9.673401611328124,-0.8592929840087891,-6.754002571105957,-3.5752713680267334
1714065808200281900,9.68328173828125,2.8954334259033203,-8.814398765563965,-0.18646281957626343
1714065808210161400,9.693161376953125,-0.44464969635009766,-6.840682029724121,1.7702770233154297
1714065808220040000,9.7030400390625,-0.8962392807006836,-4.091147422790527,0.7431823015213013
1714065808229919700,9.712919677734375,1.7088279724121094,-1.4599024057388306,0.9669123888015747
1714065808239800000,9.722800048828125,0.03605079650878906,0.003787517547607422,2.0438735485076904
1714065808249679400,9.732679443359375,0.07491874694824219,-0.3834493160247803,2.3468120098114014
1714065808259558100,9.74255810546875,1.3616275787353516,-1.5741965770721436,2.5038716793060303
1714065808269437700,9.752437744140625,0.5230379104614258,-3.032808542251587,2.7422072887420654
1714065808279318000,9.762318115234375,1.484299659729004,-4.728555679321289,2.3522942066192627
1714065808289197600,9.772197509765626,3.3958616256713867,-5.703981399536133,1.6362193822860718
1714065808299076000,9.782076171875,4.335649490356445,-5.565559387207031,0.6048983335494995
1714065808308955600,9.79195556640625,4.965150833129883,-5.393128871917725,-0.251984566450119
1714065808318836000,9.8018359375,5.156394004821777,-5.682764053344727,-0.6297028064727783
1714065808328715500,9.811715576171874,4.592977523803711,-5.84743595123291,-0.09505325555801392
1714065808338594300,9.82159423828125,0.9556493759155273,-5.819925785064697,-0.07291728258132935
1714065808348473900,9.831473876953124,2.786672592163086,-6.865760326385498,-0.3947197198867798
1714065808358354200,9.841354248046875,1.6953516006469727,-6.66360330581665,0.08044832944869995
1714065808368233700,9.851233642578125,1.0872907638549805,-6.211665630340576,0.9053494334220886
1714065808378112300,9.8611123046875,0.8807888031005859,-6.447572708129883,1.7691187858581543
1714065808387991800,9.87099169921875,0.5133857727050781,-6.276674270629883,3.3458657264709473
1714065808397872000,9.8808720703125,0.8625278472900391,-6.369936943054199,5.3273162841796875
1714065808407751700,9.890751708984375,1.1794023513793945,-6.812098026275635,6.995997905731201
1714065808417630200,9.900630126953125,1.5770297050476074,-7.281423568725586,7.995529651641846
1714065808427509800,9.910509765625,1.5085301399230957,-7.450428009033203,8.532279968261719
1714065808437390000,9.92039013671875,1.3297228813171387,-7.002406120300293,8.430403709411621
1714065808447269600,9.93026953125,0.40425586700439453,-6.262531280517578,8.238971710205078
1714065808457148400,9.9401484375,-0.6612725257873535,-5.086040019989014,8.013967514038086
1714065808467028000,9.950028076171876,-1.2309026718139648,-3.6988425254821777,7.78578519821167
1714065808476908300,9.959908203125,-1.3817253112792969,-2.478079319000244,7.315351963043213
1714065808486787800,9.969787841796874,-0.9128408432006836,-1.660998821258545,6.402909278869629
1714065808496666400,9.979666259765626,0.12238645553588867,-1.2576494216918945,4.896605491638184
1714065808506546000,9.9895458984375,1.8641338348388672,-1.4831371307373047,3.0741426944732666
1714065808516426200,9.99942626953125,3.1340737342834473,-2.0520801544189453,1.3502997159957886
1714065808526305800,10.009305908203125,4.059144496917725,-2.696561813354492,-0.31156134605407715
1714065808536184300,10.019184326171874,4.37391996383667,-3.150371551513672,-1.6863090991973877
1714065808546064000,10.02906396484375,4.267704486846924,-3.217299461364746,-2.873513698577881
1714065808555944200,10.038944091796875,3.810434341430664,-2.9029369354248047,-3.7234556674957275
1714065808565823700,10.04882373046875,2.9641571044921875,-2.335531234741211,-4.096284866333008
1714065808575702500,10.05870263671875,2.049363613128662,-1.7046689987182617,-4.306281566619873
1714065808585582000,10.06858203125,1.329883098602295,-1.2212581634521484,-4.503339767456055
1714065808595462400,10.07846240234375,0.6676788330078125,-0.8048734664916992,-4.73976469039917
1714065808605342000,10.088342041015625,0.37587523460388184,-0.47152233123779297,-5.186378479003906
1714065808615220500,10.098220458984375,0.28719615936279297,-0.12840557098388672,-5.590848445892334
1714065808625100000,10.10810009765625,0.45066380500793457,0.1634969711303711,-5.762142181396484
1714065808634980400,10.11798046875,0.7680208683013916,0.4978017807006836,-5.878453254699707
1714065808644860000,10.12785986328125,1.3726325035095215,0.8276395797729492,-5.974617004394531
1714065808654738400,10.137738525390626,2.3248465061187744,1.1583614349365234,-5.87737512588501
1714065808664618200,10.1476181640625,3.2485015392303467,1.3887910842895508,-5.764595985412598
1714065808674498600,10.15749853515625,3.655728816986084,1.5000572204589844,-5.712968826293945
1714065808684377900,10.1673779296875,3.861116647720337,1.7514476776123047,-5.626322269439697
1714065808694256600,10.177256591796874,3.9424052238464355,2.3254189491271973,-5.39940071105957
1714065808704136200,10.18713623046875,3.829577684402466,3.0357794761657715,-5.036710739135742
1714065808714016500,10.1970166015625,3.627559185028076,3.7199912071228027,-4.6071391105651855
1714065808723896000,10.20689599609375,3.236804962158203,4.108468055725098,-4.1724138259887695
1714065808733774600,10.216774658203125,2.896174907684326,4.359909534454346,-3.8052496910095215
1714065808743654100,10.226654052734375,2.555966377258301,4.732485771179199,-3.3819403648376465
1714065808753534500,10.236534423828125,2.2939257621765137,4.910655975341797,-2.933314800262451
1714065808763414000,10.2464140625,1.9484961032867432,4.85903787612915,-2.6845879554748535
1714065808773292800,10.256292724609375,1.586378574371338,4.798205375671387,-2.6770920753479004
1714065808783172400,10.26617236328125,1.286634922027588,4.8624114990234375,-2.905977725982666
1714065808793052700,10.276052734375,1.2162338495254517,4.86591911315918,-3.21152925491333
1714065808802932000,10.285931884765626,1.0926257371902466,4.777891159057617,-3.475133180618286
1714065808812810800,10.295810791015626,0.873538613319397,4.71953821182251,-3.5168681144714355
1714065808822690300,10.305690185546876,0.8029129505157471,4.470505237579346,-3.4940454959869385
1714065808832570600,10.315570556640624,0.7852914333343506,3.9881057739257812,-3.6093835830688477
1714065808842450200,10.3254501953125,0.55373215675354,3.5743751525878906,-3.9738669395446777
1714065808852328700,10.33532861328125,0.22028088569641113,3.4238290786743164,-4.436707496643066
1714065808862208300,10.345208251953125,-0.016636133193969727,3.3490753173828125,-4.877660751342773
1714065808872088800,10.3550888671875,-0.22773385047912598,3.258464813232422,-5.110698699951172
1714065808881968000,10.364968017578125,-0.47379350662231445,3.208223342895508,-5.277388572692871
1714065808891847000,10.374846923828125,-0.4679994583129883,3.137665271759033,-5.524486541748047
1714065808901726500,10.3847265625,-0.48810243606567383,3.174182891845703,-5.843468189239502
1714065808911606800,10.394606689453125,-0.5292212963104248,3.270172595977783,-5.966679573059082
1714065808921486300,10.404486328125,-0.5140945911407471,3.3012757301330566,-5.860711097717285
1714065808931364900,10.41436474609375,-0.38384532928466797,3.360419273376465,-5.701859474182129
1714065808941244400,10.424244384765625,-0.04823803901672363,3.3276615142822266,-5.575793266296387
1714065808951124700,10.434124755859376,0.08185768127441406,3.268993377685547,-5.3314924240112305
1714065808961004300,10.44400439453125,0.32073330879211426,3.0972537994384766,-4.866819381713867
1714065808970882800,10.4538828125,0.65262770652771,2.8597450256347656,-4.458105564117432
1714065808980762600,10.4637626953125,0.8922429084777832,2.5537972450256348,-4.174537658691406
1714065808990643000,10.473642822265624,0.8080306053161621,2.3579745292663574,-3.8815858364105225
1714065809000522200,10.483522216796874,0.7670776844024658,2.358074188232422,-3.658520221710205
1714065809010401000,10.493401123046874,0.6161410808563232,2.2176403999328613,-3.5788962841033936
1714065809020280600,10.503280517578125,0.3864922523498535,2.157207489013672,-3.5240445137023926
1714065809030161000,10.513160888671875,0.27767205238342285,2.060245990753174,-3.457270860671997
1714065809040040400,10.52304052734375,0.19196486473083496,1.8653559684753418,-3.499176263809204
1714065809049919000,10.5329189453125,-0.010654687881469727,1.625232219696045,-3.519716501235962
1714065809059798500,10.542798583984375,-0.07322192192077637,1.3427958488464355,-3.406935930252075
1714065809069678800,10.552678955078125,-0.04974794387817383,1.0622353553771973,-3.28104829788208
1714065809079558400,10.562558349609375,-0.3095998764038086,0.950833797454834,-3.274463176727295
1714065809089437000,10.57243701171875,-0.3547360897064209,0.8490314483642578,-3.4730732440948486
1714065809099316700,10.582316650390625,-0.3129844665527344,0.6839838027954102,-3.530222177505493
1714065809109197000,10.592197021484376,-0.5055952072143555,0.8640766143798828,-3.534200668334961
1714065809119076400,10.602076416015626,-0.47075915336608887,1.176069736480713,-3.6443347930908203
1714065809128955100,10.611955078125,-0.2517099380493164,1.2472209930419922,-3.756592273712158
1714065809138834700,10.621834716796876,-0.12044906616210938,1.1469173431396484,-3.7769930362701416
1714065809148715000,10.631715087890624,0.3663058280944824,0.8987512588500977,-3.64091420173645
1714065809158594600,10.641594482421874,0.8632729053497314,0.6234226226806641,-3.4777660369873047
1714065809168473000,10.65147314453125,1.2296125888824463,0.45741748809814453,-3.309591293334961
1714065809178352600,10.6613525390625,1.5403108596801758,0.32268524169921875,-3.039447069168091
1714065809188233000,10.67123291015625,1.8365983963012695,0.2782869338989258,-2.8739876747131348
1714065809198112500,10.681112548828125,1.7968604564666748,0.41210174560546875,-2.7523956298828125
1714065809207991300,10.6909912109375,1.6820619106292725,0.5977087020874023,-2.6498970985412598
1714065809217870800,10.700870849609375,1.7150218486785889,0.5330591201782227,-2.5824508666992188
1714065809227751200,10.710751220703125,2.0236427783966064,0.28127574920654297,-2.2893354892730713
1714065809237630500,10.72063037109375,2.5539283752441406,-0.03420448303222656,-1.7869608402252197
1714065809247509200,10.73050927734375,3.303982973098755,-0.4799995422363281,-1.1556122303009033
1714065809257388800,10.740388916015625,4.293675899505615,-1.0085821151733398,-0.42256680130958557
1714065809267269000,10.75026904296875,5.139142036437988,-1.5630950927734375,0.4195869565010071
1714065809277148700,10.760148681640626,5.769749641418457,-2.1193647384643555,1.2059249877929688
1714065809287027200,10.770027099609376,6.024405002593994,-2.4919776916503906,1.7804021835327148
1714065809296906800,10.77990673828125,5.6997599601745605,-2.669252395629883,1.7820861339569092
1714065809306787000,10.789787109375,4.780168533325195,-2.672011375427246,1.3899842500686646
1714065809316666600,10.79966650390625,3.478374719619751,-2.417102813720703,1.0267062187194824
1714065809326545400,10.80954541015625,1.9211454391479492,-1.8709096908569336,0.791734516620636
1714065809336425000,10.819425048828125,0.4413459300994873,-1.4768180847167969,0.9151409268379211
1714065809346305300,10.82930517578125,-0.6706714630126953,-1.2183570861816406,1.3788635730743408
1714065809356184600,10.8391845703125,-1.5018726587295532,-0.9103431701660156,1.9430630207061768
1714065809366063400,10.8490634765625,-1.7138831615447998,-0.7641372680664062,2.310460329055786
1714065809375943000,10.85894287109375,-1.3203786611557007,-0.8354206085205078,2.30059814453125
1714065809385823200,10.8688232421875,-0.38613462448120117,-1.143559455871582,1.881394624710083
1714065809395702800,10.878702880859375,0.7210125923156738,-1.4865493774414062,1.3806593418121338
1714065809405581300,10.888581298828125,1.5607218742370605,-1.745509147644043,0.8439776301383972
1714065809415460900,10.8984609375,1.8624727725982666,-2.0060348510742188,0.44498419761657715
1714065809425341200,10.908341064453126,1.9672205448150635,-2.254397392272949,0.18186426162719727
1714065809435220700,10.918220703125,1.7342751026153564,-2.3348941802978516,0.07942235469818115
1714065809445099500,10.928099609375,1.1965391635894775,-2.255885124206543,0.11007130146026611
1714065809454979000,10.93797900390625,0.43967485427856445,-2.0772924423217773,0.1461610496044159
1714065809464859400,10.947859375,-0.37314605712890625,-1.7659168243408203,0.19813096523284912
1714065809474738700,10.95773876953125,-1.1299748420715332,-1.3014554977416992,0.31114304065704346
1714065809484617500,10.967617431640624,-1.5022574663162231,-0.671722412109375,0.3966905474662781
1714065809494497000,10.9774970703125,-1.5342285633087158,-0.17327308654785156,0.35793501138687134
1714065809504377300,10.98737744140625,-1.2831476926803589,-0.033125877380371094,0.23509325087070465
1714065809514257000,10.9972568359375,-0.9678053855895996,-0.18936538696289062,0.23936061561107635
1714065809524135400,11.007135498046875,-0.6302094459533691,-0.4657554626464844,0.5520768165588379
1714065809534015000,11.017014892578125,-0.22385358810424805,-0.6673526763916016,0.788426399230957
1714065809543895300,11.026895263671875,0.1768784523010254,-0.7497949600219727,0.8651402592658997
1714065809553774800,11.03677490234375,0.39351344108581543,-0.7306480407714844,0.8417999744415283
1714065809563653400,11.0466533203125,0.5009548664093018,-0.6673221588134766,0.7322323322296143
1714065809573533200,11.056533203125,0.5177512168884277,-0.5450839996337891,0.5961485505104065
1714065809583413500,11.06641357421875,0.481609582901001,-0.38025760650634766,0.46936309337615967
1714065809593292800,11.076292724609376,0.4384310245513916,-0.33520984649658203,0.4900049567222595
1714065809603171600,11.086171630859376,0.4857442378997803,-0.38828277587890625,0.4855802059173584
1714065809613051100,11.096051025390626,0.6320419311523438,-0.6374197006225586,0.45960816740989685
1714065809622931500,11.105931396484374,0.7055399417877197,-0.9323234558105469,0.5363701581954956
1714065809632811000,11.11581103515625,0.6495151519775391,-1.0299415588378906,0.5937731862068176
1714065809642689500,11.125689453125,0.3335232734680176,-0.8732967376708984,0.44119909405708313
1714065809652569000,11.135569091796874,-0.1790330410003662,-0.5066413879394531,0.14817644655704498
1714065809662449400,11.145449462890625,-0.5151057243347168,-0.14786529541015625,0.00471371877938509
1714065809672329000,11.155328857421875,-0.8123233318328857,-0.07991600036621094,0.17563892900943756
1714065809682207500,11.16520751953125,-0.759972333908081,-0.05363655090332031,0.4781782925128937
1714065809692087300,11.17508740234375,-0.38771891593933105,-0.22505569458007812,0.6806791424751282
1714065809701967600,11.184967529296875,0.24113774299621582,-0.3924369812011719,0.8173325657844543
1714065809711847000,11.194846923828125,0.8709819316864014,-0.4600067138671875,0.8468902111053467
1714065809721725700,11.2047255859375,1.3699803352355957,-0.5394773483276367,0.695268452167511
1714065809731605200,11.214605224609375,1.495572566986084,-0.5317153930664062,0.4954628348350525
1714065809741485600,11.224485595703126,1.277308702468872,-0.3660087585449219,0.4270446300506592
1714065809751365000,11.234365234375,0.6831395626068115,-0.08008289337158203,0.2760393023490906
1714065809761243600,11.24424365234375,-0.1536870002746582,0.23279190063476562,-0.06795966625213623
1714065809771123200,11.254123291015626,-1.026268720626831,0.5448675155639648,-0.47886714339256287
1714065809781003500,11.26400341796875,-1.8514422178268433,0.9123210906982422,-0.759297788143158
1714065809790883000,11.273883056640624,-2.198448419570923,1.426529884338379,-0.883181631565094
1714065809800761900,11.283761962890624,-1.866565465927124,2.1951608657836914,-0.7295607924461365
1714065809810641200,11.29364111328125,-0.723416805267334,2.9073100090026855,-0.5267602205276489
1714065809820521500,11.303521484375,0.8754534721374512,3.6287097930908203,-0.47677332162857056
1714065809830401000,11.313401123046875,2.5486998558044434,4.233558654785156,-0.5234814286231995
1714065809840279800,11.32327978515625,4.847036361694336,4.486629486083984,-0.7007094621658325
1714065809850159400,11.333159423828125,6.893543243408203,4.396853446960449,-0.9125645160675049
1714065809860039700,11.343039794921875,8.691201210021973,4.205540657043457,-1.0906213521957397
1714065809869919200,11.352919189453125,10.226778030395508,3.568848133087158,-1.308053731918335
1714065809879797800,11.3627978515625,11.15591812133789,2.6904139518737793,-1.6011807918548584
1714065809889677300,11.37267724609375,11.16955280303955,1.9904522895812988,-1.8000884056091309
1714065809899557600,11.3825576171875,10.247085571289062,1.3988609313964844,-2.054720401763916
1714065809909437200,11.392437255859376,8.714768409729004,1.050623893737793,-2.7867629528045654
1714065809919315700,11.402315673828125,6.905893325805664,0.9403820037841797,-3.573118209838867
1714065809929195300,11.4121953125,5.289172172546387,1.2966899871826172,-3.9823546409606934
1714065809939075600,11.42207568359375,4.144140720367432,1.6323528289794922,-4.053238391876221
1714065809948955100,11.431955078125,3.6305127143859863,1.304257869720459,-4.325018882751465
1714065809958834000,11.441833984375,2.846498489379883,1.0173163414001465,-4.658640384674072
1714065809968713500,11.45171337890625,2.8811593055725098,0.7267374992370605,-4.775773525238037
1714065809978593800,11.46159375,3.0791945457458496,0.2979898452758789,-4.627116680145264
1714065809988473000,11.47147314453125,3.3080949783325195,-0.2210073471069336,-4.4801740646362305
1714065809998352000,11.481351806640625,3.334501266479492,-0.694580078125,-4.4340057373046875
1714065810008231400,11.4912314453125,3.0359411239624023,-1.108123779296875,-4.312995433807373
1714065810018111700,11.50111181640625,3.0710291862487793,-1.4876999855041504,-4.2899169921875
1714065810027991300,11.5109912109375,3.421657085418701,-1.7729825973510742,-3.886528730392456
1714065810037869800,11.520869873046875,3.6540656089782715,-1.8783679008483887,-3.2198288440704346
1714065810047749400,11.530749267578125,3.576892852783203,-1.9570417404174805,-2.2954823970794678
1714065810057629700,11.540629638671875,3.1163458824157715,-2.061598777770996,-1.3384764194488525
1714065810067509200,11.55050927734375,2.8010292053222656,-1.9033546447753906,-0.6313238143920898
1714065810077388000,11.560387939453125,2.9961962699890137,-1.6388864517211914,-0.11711537837982178
1714065810087267600,11.570267578125,3.157261371612549,-1.5891289710998535,-0.06416714191436768
1714065810097147600,11.580147705078126,3.4253110885620117,-1.7832155227661133,-0.607787013053894
1714065810107027200,11.590027099609374,3.4252376556396484,-2.188793182373047,-1.5094420909881592
1714065810116906000,11.599906005859374,3.386113166809082,-2.6927061080932617,-2.190230369567871
1714065810126785500,11.60978564453125,2.948770523071289,-3.0934200286865234,-2.5331344604492188
1714065810136665900,11.619665771484375,2.6702585220336914,-3.3247203826904297,-2.7888405323028564
1714065810146545400,11.62954541015625,2.431126594543457,-3.2375807762145996,-2.9140782356262207
1714065810156424000,11.639423828125,2.19303035736084,-3.3814778327941895,-2.860959053039551
1714065810166303500,11.649303466796875,1.800893783569336,-4.024238586425781,-2.7879345417022705
1714065810176183800,11.659183837890625,1.324295997619629,-4.537506580352783,-2.695742130279541
1714065810186063400,11.6690634765625,0.8375921249389648,-4.645730018615723,-2.4101102352142334
1714065810195942000,11.67894189453125,0.4882516860961914,-4.334647178649902,-2.149360418319702
1714065810205821700,11.68882177734375,0.49427318572998047,-3.906416416168213,-1.6825330257415771
1714065810215701800,11.69870166015625,0.7001819610595703,-3.6970908641815186,-1.1377463340759277
1714065810225581300,11.708581298828125,0.9781675338745117,-3.5568902492523193,-0.7698087692260742
1714065810235460000,11.718460205078125,1.1390724182128906,-3.5609183311462402,-0.615234375
1714065810245339600,11.728339599609376,1.1645421981811523,-3.6008243560791016,-0.3986644744873047
1714065810255220000,11.738219970703126,0.9875764846801758,-3.670673131942749,-0.0753946304321289
1714065810265099500,11.748099609375,0.7592563629150391,-3.9759483337402344,0.11784648895263672
1714065810274978000,11.75797802734375,0.16433143615722656,-4.239904403686523,0.36924314498901367
1714065810284857600,11.767857666015624,-0.561375617980957,-4.250775337219238,0.7642884254455566
1714065810294738000,11.777738037109375,-0.8658642768859863,-3.802750587463379,1.1085491180419922
1714065810304617500,11.787617431640625,-1.0636720657348633,-3.2729578018188477,1.6295597553253174
1714065810314496000,11.79749609375,-0.871579647064209,-3.0985875129699707,2.193737030029297
1714065810324375600,11.80737548828125,-0.600132942199707,-3.1395668983459473,2.3958899974823
1714065810334255900,11.817255859375,-0.3064422607421875,-3.030803680419922,2.2904577255249023
1714065810344135400,11.827135498046875,-0.09358787536621094,-3.0880722999572754,2.146070957183838
1714065810354014200,11.83701416015625,-0.10719585418701172,-3.401592969894409,2.1246936321258545
1714065810363893800,11.846893798828125,-0.40735769271850586,-3.776015281677246,2.385918140411377
1714065810373774000,11.856774169921875,-1.1379060745239258,-3.814199924468994,2.835343360900879
1714065810383653400,11.8666533203125,-2.0278067588806152,-3.419992446899414,3.095430612564087
1714065810393532200,11.8765322265625,-2.132120132446289,-2.696554660797119,3.137453317642212
1714065810403411700,11.88641162109375,-2.6014442443847656,-2.0039899349212646,3.2499449253082275
1714065810413292000,11.8962919921875,-3.256222724914551,-1.7325427532196045,3.2868502140045166
1714065810423171600,11.906171630859374,-3.532313346862793,-1.6717915534973145,3.1148362159729004
1714065810433050000,11.916050048828126,-3.2451820373535156,-1.337244987487793,2.813717842102051
1714065810442929700,11.9259296875,-4.613757133483887,-0.4943044185638428,1.7474889755249023
1714065810452810000,11.93581005859375,-3.977877140045166,0.8901377320289612,4.329952239990234
1714065810462689500,11.945689453125,-3.7579193115234375,1.581929326057434,5.516324996948242
1714065810472568300,11.955568359375,-7.0507893562316895,3.274937868118286,8.4846830368042
1714065810482448000,11.96544775390625,-5.680320739746094,1.3868207931518555,7.086736679077148
1714065810492328200,11.975328125,21.381813049316406,-2.2321600914001465,8.51260757446289
1714065810502207500,11.98520751953125,6.91127872467041,-6.0501508712768555,0.2090003490447998
1714065810512086300,11.995086181640625,-2.8644919395446777,-7.116721153259277,-4.343676567077637
1714065810521965800,12.0049658203125,-3.0072317123413086,-3.184312582015991,-0.8232980966567993
1714065810531846100,12.01484619140625,-0.06195354461669922,0.8745001554489136,2.3659324645996094
1714065810541725700,12.0247255859375,-0.5667953491210938,1.237527847290039,1.6280494928359985
1714065810551604200,12.034604248046875,-1.338181495666504,0.23782014846801758,0.30782145261764526
1714065810561483800,12.04448388671875,2.659420967102051,-0.39635586738586426,-1.581030011177063
1714065810571364000,12.054364013671876,3.822140693664551,-0.3008744716644287,-1.289506196975708
1714065810581243600,12.06424365234375,1.7860612869262695,0.35573267936706543,1.66019868850708
1714065810591122200,12.0741220703125,-0.27306461334228516,0.2585245370864868,3.546396255493164
1714065810601002000,12.084001953125,-0.10123634338378906,-1.5100736618041992,3.0195605754852295
1714065810610882300,12.09388232421875,-4.299376010894775,-3.2606210708618164,3.5823347568511963
1714065810620761600,12.10376171875,-6.901008605957031,-4.876116752624512,1.9978502988815308
1714065810630640400,12.113640380859374,0.649261474609375,-5.297508239746094,-1.8629329204559326
1714065810640520000,12.12352001953125,-0.43566036224365234,0.032379746437072754,-1.5411163568496704
1714065810650400300,12.133400146484375,0.9977178573608398,1.6961530447006226,-2.1941351890563965
1714065810660279800,12.14327978515625,0.5226888656616211,-0.5135976076126099,-3.2677440643310547
1714065810670158300,12.153158447265625,-0.34659385681152344,-1.0080509185791016,-1.5009809732437134
1714065810680038000,12.163037841796875,0.4426307678222656,-0.01048290729522705,0.7813764810562134
1714065810689918200,12.172918212890625,0.6482172012329102,-0.10341024398803711,2.152431011199951
1714065810699797800,12.1827978515625,-0.4105367660522461,-0.7441993951797485,2.176201343536377
1714065810709676500,12.192676513671875,-0.7565755844116211,-1.3041269779205322,1.7440950870513916
1714065810719555800,12.202555908203125,-0.8071470260620117,-1.5777102708816528,1.7311335802078247
1714065810729436200,12.212436279296876,-0.20296001434326172,-1.1891239881515503,1.479231834411621
1714065810739315700,12.222315673828126,0.3348255157470703,-1.1761047840118408,0.6450658440589905
1714065810749194500,12.232194580078126,0.5363264083862305,-1.1932902336120605,-0.1231275126338005
1714065810759074000,12.242073974609376,0.26187705993652344,-1.2845802307128906,0.022924065589904785
1714065810768954400,12.251954345703124,-0.37176990509033203,-1.2865753173828125,0.355054646730423
1714065810778834000,12.261833984375,-1.1025724411010742,-1.3555771112442017,0.4206896424293518
1714065810788712400,12.27171240234375,-1.6361656188964844,-1.234038233757019,0.09696248173713684
1714065810798592000,12.281592041015625,-1.7010555267333984,-1.046887755393982,-0.29349833726882935
1714065810808472300,12.291472412109375,-1.2656240463256836,-1.1138099431991577,-0.4611843526363373
1714065810818351900,12.301351806640625,-0.9000225067138672,-1.1751384735107422,-0.2587302029132843
1714065810828230400,12.31123046875,-0.740412712097168,-1.2678409814834595,-0.009911388158798218
1714065810838110000,12.32110986328125,-0.6382217407226562,-1.1507649421691895,0.03795433044433594
1714065810847990300,12.330990234375,-0.612370491027832,-0.7083642482757568,0.0918167233467102
1714065810857869800,12.340869873046875,-0.3400135040283203,-0.6332248449325562,-0.08216100931167603
1714065810867748600,12.35074853515625,-0.5598430633544922,-0.7843595743179321,0.06008201837539673
1714065810877628200,12.360628173828125,-0.139984130859375,-0.7713110446929932,0.4317966103553772
1714065810887508500,12.370508544921876,-1.264887809753418,-0.5724564790725708,0.11296141147613525
1714065810897387800,12.3803876953125,-1.142608642578125,-0.748741626739502,-0.33216243982315063
1714065810907266600,12.3902666015625,-0.7784786224365234,-0.7761063575744629,-0.3395317792892456
1714065810917146000,12.40014599609375,-0.889826774597168,-0.583267331123352,0.15923583507537842
