time,seconds_elapsed,z,y,x
1714065738853233700,0.160233642578125,-0.032833099365234375,0.0019974559545516968,0.01023632287979126
1714065738863112400,0.170112548828125,-0.051781654357910156,0.043589428067207336,0.02799665927886963
1714065738872992300,0.1799921875,-0.04391002655029297,0.08359396457672119,0.01464855670928955
1714065738882872800,0.189872802734375,-0.026594161987304688,0.07130151987075806,-0.005908787250518799
1714065738892752400,0.19975244140625,-0.00023174285888671875,0.03048555552959442,-0.0030018389225006104
1714065738902631400,0.20963134765625,0.04587268829345703,-0.011284589767456055,0.03036212921142578
1714065738912511000,0.219510986328125,0.04675483703613281,-0.04362364113330841,0.05032232403755188
1714065738922391600,0.2293916015625,0.010058403015136719,-0.0204465389251709,0.029252558946609497
1714065738932271000,0.23927099609375,-0.01966381072998047,0.0011928677558898926,-0.003781825304031372
1714065738942150100,0.249150146484375,-0.03414440155029297,0.017221719026565552,-0.007834911346435547
1714065738952029700,0.25902978515625,-0.025374412536621094,0.016602277755737305,-0.011680305004119873
1714065738961910300,0.26891015625,-0.010396957397460938,0.013582423329353333,0.00035890936851501465
1714065738971790000,0.2787900390625,-0.005320549011230469,0.01972620189189911,0.00507768988609314
1714065738981668900,0.2886689453125,-0.0005121231079101562,0.0460871160030365,-0.010894834995269775
1714065738991548700,0.298548583984375,0.008633613586425781,0.057742223143577576,0.0011125504970550537
1714065739001429000,0.308428955078125,0.01738739013671875,0.03037865459918976,0.01943245530128479
1714065739011308800,0.318308837890625,0.037242889404296875,-0.011762306094169617,0.03253111243247986
1714065739021187600,0.3281875,0.031093597412109375,-0.03404541313648224,0.029200494289398193
1714065739031067400,0.3380673828125,0.018346786499023438,-0.034926846623420715,0.019158929586410522
1714065739040948000,0.347947998046875,-0.016892433166503906,-0.024204537272453308,-0.01129952073097229
1714065739050827500,0.35782763671875,-0.03010272979736328,0.018360763788223267,-0.010676085948944092
1714065739060706600,0.36770654296875,-0.031337738037109375,0.034152477979660034,-0.007781028747558594
1714065739070586000,0.377586181640625,-0.02563953399658203,0.028639376163482666,0.0020550191402435303
1714065739080466700,0.387466796875,-0.0016527175903320312,0.034683093428611755,-0.00232011079788208
1714065739090346500,0.397346435546875,0.02851390838623047,0.028990373015403748,-0.002036839723587036
1714065739100225300,0.407225341796875,0.027619361877441406,0.028256505727767944,0.005190759897232056
1714065739110105000,0.41710498046875,0.0244598388671875,0.015964791178703308,0.032981812953948975
1714065739119985400,0.4269853515625,0.030710220336914062,-0.0144234299659729,0.04383671283721924
1714065739129865200,0.436865234375,0.01819896697998047,-0.03232741355895996,0.024302303791046143
1714065739139744000,0.446743896484375,0.0037240982055664062,-0.04522223770618439,0.00754094123840332
1714065739149623800,0.456623779296875,-0.024332046508789062,-0.015878722071647644,0.0028828680515289307
1714065739159504400,0.46650439453125,-0.021360397338867188,0.008023127913475037,-0.0017650425434112549
1714065739169384000,0.476384033203125,-0.027812957763671875,0.03610028326511383,-0.006177842617034912
1714065739179263000,0.486262939453125,-0.015459060668945312,0.03770957887172699,-0.0009103715419769287
1714065739189142500,0.496142578125,0.0806417465209961,-0.012777715921401978,-0.021107584238052368
1714065739199023000,0.506023193359375,0.08334159851074219,-0.03752848505973816,-0.015475332736968994
1714065739208903000,0.51590283203125,0.22629451751708984,0.08641456067562103,-0.01921403408050537
1714065739218781700,0.52578173828125,-0.02925872802734375,0.031673237681388855,-0.014440953731536865
1714065739228661500,0.53566162109375,0.025130271911621094,-0.21158011257648468,-0.12816821038722992
1714065739238541800,0.545541748046875,0.24929046630859375,-0.19938762485980988,-0.35732895135879517
1714065739248421600,0.555421630859375,0.17610740661621094,-0.18288812041282654,-0.23270177841186523
1714065739258300700,0.56530078125,0.5619106292724609,0.1030418872833252,0.49967750906944275
1714065739268180200,0.57518017578125,0.588505744934082,-0.047718971967697144,0.2716841995716095
1714065739278060800,0.585060791015625,0.7743864059448242,-0.3727308511734009,0.02451235055923462
1714065739287940400,0.5949404296875,-0.16962909698486328,-0.5786592960357666,0.5541656017303467
1714065739297819400,0.6048193359375,-0.6492843627929688,-1.4440215826034546,0.16967421770095825
1714065739307699000,0.614698974609375,-1.7918434143066406,-0.744829535484314,-0.2798427939414978
1714065739317579500,0.62457958984375,0.8196439743041992,0.018333695828914642,-0.6591472029685974
1714065739327459300,0.634459228515625,0.8560276031494141,1.2700809240341187,-0.5621486902236938
1714065739337338000,0.644338134765625,0.8860235214233398,1.6026793718338013,0.4232180416584015
1714065739347218000,0.654218017578125,0.7498683929443359,1.2193522453308105,1.3540877103805542
1714065739357098500,0.664098388671875,0.44574546813964844,1.3715869188308716,-0.02014005184173584
1714065739366978000,0.67397802734375,-4.31550407409668,0.9303171038627625,-0.7790719270706177
1714065739376857000,0.683857177734375,1.4183320999145508,-0.154586061835289,-0.46741828322410583
1714065739386736600,0.693736572265625,-0.9738025665283203,-1.15940523147583,0.3720974028110504
1714065739396617200,0.7036171875,0.30916404724121094,-0.8513789176940918,0.32791656255722046
1714065739406497000,0.7134970703125,0.2287921905517578,-0.5376356244087219,-0.05651211738586426
1714065739416375800,0.723375732421875,0.0719451904296875,-0.36714237928390503,-0.16898700594902039
1714065739426255600,0.733255615234375,0.09667587280273438,-0.09221923351287842,-0.1954961121082306
1714065739436136200,0.74313623046875,-0.020383834838867188,0.03395579755306244,-0.09081092476844788
1714065739446015700,0.753015625,0.19211959838867188,0.07849569618701935,0.011203229427337646
1714065739455894800,0.762894775390625,0.15618896484375,0.08992899954319,0.03186345100402832
1714065739465774300,0.7727744140625,-0.03022289276123047,0.04446403682231903,0.04657721519470215
1714065739475655000,0.782655029296875,-0.19977378845214844,-0.03355756402015686,-0.04992607235908508
1714065739485534700,0.79253466796875,-0.23000812530517578,0.018008127808570862,-0.1291285753250122
1714065739495413500,0.80241357421875,-0.04032707214355469,0.09444837272167206,-0.04302409291267395
1714065739505293300,0.812293212890625,-0.1460590362548828,0.18421746790409088,0.031173616647720337
1714065739515173600,0.822173583984375,-0.13934040069580078,0.24451899528503418,-0.08514910936355591
1714065739525053400,0.832053466796875,0.004338264465332031,0.24858085811138153,-0.13072848320007324
1714065739534932500,0.841932373046875,-0.014473915100097656,0.3185797929763794,-0.09398585557937622
1714065739544812000,0.85181201171875,-0.18895721435546875,0.381881982088089,-0.11691506206989288
1714065739554692600,0.861692626953125,-0.1414012908935547,0.32636114954948425,-0.2058301568031311
1714065739564572400,0.871572509765625,0.016669273376464844,0.20620514452457428,-0.23995788395404816
1714065739574451200,0.881451171875,0.17986583709716797,0.06934066116809845,-0.22364750504493713
1714065739584331000,0.8913310546875,0.21813297271728516,0.0611748993396759,-0.17840754985809326
1714065739594211300,0.90121142578125,0.24418354034423828,0.09479312598705292,-0.29090285301208496
1714065739604091100,0.911091064453125,0.0903024673461914,0.13753247261047363,-0.4063318073749542
1714065739613970000,0.920969970703125,0.047263145446777344,0.07811103761196136,-0.4549972116947174
1714065739623849700,0.930849609375,-0.013948440551757812,0.16858062148094177,-0.3839833438396454
1714065739633730300,0.940730224609375,0.1032705307006836,0.1978709101676941,-0.14012965559959412
1714065739643609900,0.95060986328125,0.18151378631591797,0.18927225470542908,0.005804240703582764
1714065739653489000,0.960489013671875,0.4389200210571289,0.10817089676856995,0.1840973198413849
1714065739663368700,0.97036865234375,0.6390848159790039,0.00779569149017334,0.3006977140903473
1714065739673249000,0.9802490234375,0.7399835586547852,-0.10599100589752197,0.3357284665107727
1714065739683128800,0.99012890625,0.711878776550293,-0.13675010204315186,0.4797153174877167
1714065739693007600,1.000007568359375,0.7384662628173828,-0.04305097460746765,0.579646110534668
1714065739702887400,1.009887451171875,0.7386293411254883,0.04620864987373352,0.6784374713897705
1714065739712768000,1.01976806640625,0.700836181640625,0.09186190366744995,0.7499852776527405
1714065739722647800,1.029647705078125,0.7960128784179688,0.0704711377620697,0.623938262462616
1714065739732526600,1.039526611328125,0.973017692565918,-0.034429848194122314,0.4652373194694519
1714065739742406400,1.049406494140625,1.0983524322509766,-0.17235463857650757,0.3899472951889038
1714065739752287000,1.059286865234375,1.198629379272461,-0.10617083311080933,0.4419492781162262
1714065739762166500,1.06916650390625,1.2741155624389648,-0.022660255432128906,0.49921634793281555
1714065739772045600,1.079045654296875,1.2635021209716797,-0.008811235427856445,0.509366512298584
1714065739781925000,1.088925048828125,1.3051958084106445,-0.02003258466720581,0.4775538444519043
1714065739791805700,1.0988056640625,1.4295616149902344,-0.05769193172454834,0.40178894996643066
1714065739801685500,1.108685546875,1.5386619567871094,-0.14448535442352295,0.3014507293701172
1714065739811564300,1.118564208984375,1.5924205780029297,-0.1323654055595398,0.24216316640377045
1714065739821444000,1.128444091796875,1.5796175003051758,-0.05416083335876465,0.2034091353416443
1714065739831324700,1.13832470703125,1.519948959350586,-0.011225581169128418,0.0412718802690506
1714065739841204200,1.148204345703125,1.4850988388061523,-0.011227309703826904,-0.13694554567337036
1714065739851083000,1.1580830078125,1.4440946578979492,-0.026320815086364746,-0.22221526503562927
1714065739860962800,1.167962890625,1.423147201538086,0.077079176902771,-0.09186627715826035
1714065739870843400,1.177843505859375,1.4766225814819336,0.2237628698348999,0.13868768513202667
1714065739880723200,1.18772314453125,1.4591398239135742,0.28477489948272705,0.26299330592155457
1714065739890602000,1.19760205078125,1.4305963516235352,0.1766456961631775,0.2663145661354065
1714065739900481800,1.207481689453125,1.4124107360839844,0.22733712196350098,0.3850739002227783
1714065739910362400,1.2173623046875,1.4565744400024414,0.3150864243507385,0.4981715679168701
1714065739920242000,1.227241943359375,1.58612060546875,0.3428087830543518,0.5208516120910645
1714065739930120700,1.23712060546875,1.603163719177246,0.2667086124420166,0.5469628572463989
1714065739940000500,1.24700048828125,1.7529191970825195,0.22574502229690552,0.5630121231079102
1714065739949881000,1.256881103515625,1.8727302551269531,0.1357998251914978,0.5244550704956055
1714065739959761000,1.266760986328125,2.150191307067871,-0.025580644607543945,0.48693782091140747
1714065739969639700,1.2766396484375,2.3251123428344727,-0.1349964141845703,0.5509811639785767
1714065739979519500,1.28651953125,2.3366870880126953,-0.01623070240020752,0.6429111957550049
1714065739989400000,1.296400146484375,2.2576704025268555,0.21195286512374878,0.7035069465637207
1714065739999279600,1.306279541015625,2.124527931213379,0.3478003740310669,0.7014104723930359
1714065740009158700,1.31615869140625,2.0612735748291016,0.4188941717147827,0.6551500558853149
1714065740019038200,1.3260380859375,1.967702865600586,0.5333446264266968,0.5940747261047363
1714065740028918800,1.335918701171875,1.8844804763793945,0.665048360824585,0.5500159859657288
1714065740038798600,1.345798583984375,1.816288948059082,0.7048704624176025,0.557606041431427
1714065740048677400,1.355677490234375,1.779592514038086,0.6271651983261108,0.5572611093521118
1714065740058557200,1.36555712890625,1.6981334686279297,0.6348841190338135,0.6617704033851624
1714065740068437800,1.375437744140625,1.4868106842041016,0.7399976849555969,0.6905319094657898
1714065740078317300,1.3853173828125,1.3082752227783203,0.8073388934135437,0.687382161617279
1714065740088196400,1.3951962890625,1.181260108947754,0.8465632200241089,0.7190609574317932
1714065740098076200,1.405076171875,1.1196117401123047,0.8529961109161377,0.7565392851829529
1714065740107956500,1.41495654296875,1.0467729568481445,0.8052375316619873,0.7877131104469299
1714065740117836300,1.424836181640625,0.986577033996582,0.7369449138641357,0.8023401498794556
1714065740127715000,1.434715087890625,0.8890247344970703,0.6745314002037048,0.7737307548522949
1714065740137595000,1.444594970703125,0.7448863983154297,0.6637843251228333,0.7637275457382202
1714065740147475500,1.454475341796875,0.532719612121582,0.7249817848205566,0.8050007820129395
1714065740157355300,1.464355224609375,0.41846466064453125,0.7817257642745972,0.8471965789794922
1714065740167234000,1.474234130859375,0.40509891510009766,0.7227093577384949,0.8833096623420715
1714065740177113900,1.48411376953125,0.39909839630126953,0.6767545938491821,0.9134376049041748
1714065740186994200,1.493994140625,0.40976810455322266,0.7048491835594177,0.928815484046936
1714065740196874000,1.5038740234375,0.47213268280029297,0.7514834403991699,0.9440744519233704
1714065740206753000,1.5137529296875,0.5946245193481445,0.6835100650787354,0.9617075324058533
1714065740216632600,1.523632568359375,0.7713708877563477,0.5838841795921326,1.0480222702026367
1714065740226513200,1.53351318359375,0.9189777374267578,0.5630614757537842,1.1312792301177979
1714065740236393000,1.54339306640625,1.1014652252197266,0.6431807279586792,1.1900908946990967
1714065740246271700,1.553271728515625,1.2169923782348633,0.6860556602478027,1.1298160552978516
1714065740256151600,1.563151611328125,1.2219200134277344,0.7536967992782593,1.0854405164718628
1714065740266032000,1.5730322265625,1.0898246765136719,0.8389484882354736,1.0953798294067383
1714065740275911700,1.58291162109375,0.914851188659668,0.7913179993629456,0.9585101008415222
1714065740285790700,1.592790771484375,0.7213602066040039,0.6889973878860474,0.7791175842285156
1714065740295670300,1.602670166015625,0.545018196105957,0.6084412932395935,0.7607496380805969
1714065740305550800,1.61255078125,0.41376304626464844,0.5886721611022949,0.9184802174568176
1714065740315430700,1.6224306640625,0.3220682144165039,0.45791393518447876,0.8557275533676147
1714065740325309400,1.632309326171875,0.07388019561767578,0.27847039699554443,0.801482081413269
1714065740335189200,1.642189208984375,-0.16350269317626953,0.23808926343917847,0.9045987725257874
1714065740345069800,1.65206982421875,-0.40210819244384766,0.3004378080368042,1.0753166675567627
1714065740354949400,1.661949462890625,-0.6630764007568359,0.2520256042480469,0.9702877998352051
1714065740364828400,1.671828369140625,-0.8321695327758789,0.2585604786872864,0.8475431799888611
1714065740374708200,1.681708251953125,-1.0074310302734375,0.4115314483642578,0.8127274513244629
1714065740384588500,1.691588623046875,-1.4241819381713867,0.5913994312286377,0.7276505827903748
1714065740394468400,1.70146826171875,-1.66448974609375,0.7975239157676697,0.62907475233078
1714065740404347100,1.71134716796875,-1.981673240661621,0.9882851243019104,0.5702800750732422
1714065740414227000,1.72122705078125,-2.227741241455078,1.0601325035095215,0.5030478835105896
1714065740424107500,1.731107421875,-2.5317296981811523,0.9451448321342468,0.45753031969070435
1714065740433987300,1.7409873046875,-2.6102590560913086,0.6673936247825623,0.3501867651939392
1714065740443866000,1.7508662109375,-2.8240108489990234,0.5877225995063782,0.4554540812969208
1714065740453746000,1.760745849609375,-2.9603538513183594,0.5834895968437195,0.625672459602356
1714065740463626200,1.770626220703125,-2.9198031425476074,0.4866112470626831,0.6833018064498901
1714065740473506000,1.780506103515625,-3.141231060028076,0.3576285243034363,0.8561574220657349
1714065740483384800,1.790384765625,-2.944901466369629,0.34441155195236206,0.9158419966697693
1714065740493264600,1.8002646484375,-3.1734399795532227,0.28274622559547424,0.9171947240829468
1714065740503145200,1.810145263671875,-3.1461124420166016,0.2130259871482849,0.8049059510231018
1714065740513025000,1.82002490234375,-3.238194465637207,0.14965546131134033,0.7830188274383545
1714065740522903800,1.82990380859375,-3.241957664489746,0.15448611974716187,0.7931761145591736
1714065740532783600,1.83978369140625,-3.336467742919922,0.16806954145431519,0.7438282370567322
1714065740542664200,1.849664306640625,-3.2379508018493652,0.16813230514526367,0.7855042219161987
1714065740552543700,1.859543701171875,-3.226067543029785,0.12054288387298584,0.741434633731842
1714065740562422500,1.869422607421875,-3.1480164527893066,-0.03246641159057617,0.7117434740066528
1714065740572302300,1.87930224609375,-2.9851861000061035,-0.2631620764732361,0.286543607711792
1714065740582183000,1.889182861328125,-2.697615146636963,-0.26071906089782715,-0.12254410982131958
1714065740592062700,1.899062744140625,-2.521613597869873,-0.2219257950782776,-0.041140973567962646
1714065740601941500,1.90894140625,-2.3873238563537598,-0.16762322187423706,0.09381282329559326
1714065740611821300,1.9188212890625,-2.3776803016662598,-0.056730687618255615,0.2432308793067932
1714065740621702000,1.928701904296875,-2.332313060760498,-0.04118835926055908,0.36128169298171997
1714065740631581400,1.93858154296875,-2.1799144744873047,-0.0751599669456482,0.3134825825691223
1714065740641460200,1.948460205078125,-1.992497444152832,-0.051460325717926025,0.19869941473007202
1714065740651340000,1.958340087890625,-1.7083702087402344,-0.013746201992034912,0.03316289186477661
1714065740661220600,1.968220703125,-1.4447154998779297,-0.009456872940063477,-0.19067545235157013
1714065740671100400,1.978100341796875,-1.375187873840332,0.13481634855270386,-0.3113667964935303
1714065740680979200,1.987979248046875,-1.3652820587158203,0.42075440287590027,-0.25998786091804504
1714065740690859000,1.99785888671875,-1.4265174865722656,0.6591103076934814,-0.01995842158794403
1714065740700739600,2.007739501953125,-1.479893684387207,0.8326995372772217,0.1949000507593155
1714065740710619100,2.017619140625,-1.596879005432129,0.8177019357681274,0.3291246294975281
1714065740720498200,2.027498291015625,-1.7223682403564453,0.6908442974090576,0.2652808427810669
1714065740730377700,2.037377685546875,-1.8920726776123047,0.658713698387146,0.2429068684577942
1714065740740258300,2.04725830078125,-2.1152830123901367,0.7457027435302734,0.3135016858577728
1714065740750138000,2.05713818359375,-2.1392431259155273,0.7120863795280457,0.22968272864818573
1714065740760017000,2.067016845703125,-2.060225486755371,0.46866747736930847,-0.009522832930088043
1714065740769896700,2.076896728515625,-1.9882898330688477,0.18873190879821777,0.049844272434711456
1714065740779777300,2.08677734375,-1.778092384338379,0.048657357692718506,-0.29765310883522034
1714065740789657000,2.096656982421875,-1.6161766052246094,0.028614521026611328,-0.32590508460998535
1714065740799535900,2.106535888671875,-1.4547090530395508,0.026377201080322266,-0.17635393142700195
1714065740809415700,2.116415771484375,-1.3222837448120117,-0.013391196727752686,-0.25868090987205505
1714065740819296000,2.1262958984375,-1.1164941787719727,-0.04530811309814453,-0.13694770634174347
1714065740829175800,2.13617578125,-0.9618568420410156,-0.10582655668258667,-0.15467391908168793
1714065740839054600,2.1460546875,-0.6391897201538086,-0.21631580591201782,-0.07854649424552917
1714065740848934400,2.155934326171875,-0.38799285888671875,-0.5760236978530884,-0.28336161375045776
1714065740858815000,2.16581494140625,-0.10107135772705078,-0.7819940447807312,-0.3350589871406555
1714065740868694800,2.17569482421875,-0.1123361587524414,-1.1482822895050049,-0.594886302947998
1714065740878573600,2.185573486328125,0.06319522857666016,-1.087059736251831,-0.5353460311889648
1714065740888453400,2.195453369140625,-0.34471702575683594,-1.0649394989013672,-0.49435025453567505
1714065740898334000,2.205333984375,-0.4322662353515625,-0.8930487036705017,-0.4523443579673767
1714065740908213500,2.215213623046875,-0.8104972839355469,-0.6843225359916687,-0.4753076434135437
1714065740918092300,2.22509228515625,-1.043954849243164,-0.16532498598098755,-0.19577555358409882
1714065740927972000,2.23497216796875,-1.4950332641601562,0.16136711835861206,-0.17108795046806335
1714065740937852700,2.244852783203125,-1.7073497772216797,0.4630031883716583,-0.38599830865859985
1714065740947732500,2.254732421875,-1.9058637619018555,0.7082233428955078,-0.4677862524986267
1714065740957611300,2.264611328125,-1.864283561706543,0.7914834022521973,-0.4502091407775879
1714065740967491000,2.274490966796875,-1.5434150695800781,0.7422337532043457,-0.4804190993309021
1714065740977371600,2.28437158203125,-1.2212438583374023,0.5601910352706909,-0.3157781958580017
1714065740987251200,2.294251220703125,-0.9695253372192383,0.20900318026542664,-0.05103448033332825
1714065740997130000,2.3041298828125,-0.8167448043823242,-0.06539249420166016,0.09786379337310791
1714065741007009800,2.314009765625,-0.6458826065063477,-0.21546542644500732,0.2049468755722046
1714065741016890400,2.323890380859375,-0.49765491485595703,-0.33555591106414795,0.3268865644931793
1714065741026770200,2.333770263671875,-0.48633861541748047,-0.28939706087112427,0.32298076152801514
1714065741036649000,2.34364892578125,-0.46585941314697266,-0.16779756546020508,0.3337436318397522
1714065741046528800,2.35352880859375,-0.38848114013671875,-0.05399894714355469,0.2793163061141968
1714065741056409300,2.363409423828125,-0.2805747985839844,0.0591009259223938,0.24416884779930115
1714065741066289000,2.373288818359375,-0.21132946014404297,0.013653218746185303,0.10945203900337219
1714065741076167700,2.383167724609375,-0.11856460571289062,-0.08803898096084595,0.03822806477546692
1714065741086047500,2.393047607421875,-0.14300251007080078,-0.10997337102890015,-0.01100228726863861
1714065741095928000,2.402927978515625,-0.2530708312988281,-0.04636335372924805,-0.0696176290512085
1714065741105808000,2.412807861328125,-0.36726856231689453,0.05156528949737549,-0.1330057978630066
1714065741115686700,2.422686767578125,-0.3807106018066406,0.21212923526763916,-0.11950422823429108
1714065741125566500,2.43256640625,-0.35097408294677734,0.27628007531166077,-0.04022800922393799
1714065741135447000,2.442447021484375,-0.27826690673828125,0.11283433437347412,-0.2944900691509247
1714065741145326600,2.45232666015625,-0.24863624572753906,-0.025272727012634277,-0.4125252664089203
1714065741155205400,2.462205322265625,0.06463050842285156,-0.1634300947189331,-0.5627589225769043
1714065741165085200,2.472085205078125,0.22881412506103516,-0.15367841720581055,-0.5053347945213318
1714065741174965800,2.4819658203125,0.39948463439941406,-0.08478546142578125,-0.363267719745636
1714065741184845600,2.491845458984375,0.5146465301513672,-0.08733129501342773,-0.4035435914993286
1714065741194724400,2.501724365234375,0.4243898391723633,-0.0498429536819458,-0.21626459062099457
1714065741204604200,2.511604248046875,0.33225250244140625,-0.043362200260162354,0.09450097382068634
1714065741214484700,2.521484619140625,0.2930879592895508,0.04207354784011841,0.2907264828681946
1714065741224364300,2.5313642578125,-0.04846477508544922,0.24661776423454285,0.28227290511131287
1714065741234243300,2.541243408203125,-0.2094717025756836,0.6947592496871948,-0.05838194862008095
1714065741244123000,2.551122802734375,-0.2741117477416992,0.8534209728240967,-0.24541208148002625
1714065741254003500,2.56100341796875,-0.2785816192626953,0.779776394367218,-0.11724695563316345
1714065741263883300,2.57088330078125,0.06279468536376953,0.5776984691619873,-0.1518426388502121
1714065741273762000,2.580761962890625,0.5360794067382812,0.21601665019989014,-0.09267091006040573
1714065741283641900,2.590641845703125,0.7375431060791016,-0.11200785636901855,-0.20023095607757568
1714065741293522400,2.6005224609375,0.8231563568115234,-0.23127007484436035,-0.20079097151756287
1714065741303402000,2.610402099609375,0.645655632019043,-0.13325142860412598,-0.3412277102470398
1714065741313281000,2.620281005859375,0.3303804397583008,0.07147228717803955,-0.4810158610343933
1714065741323160800,2.630160888671875,0.20243167877197266,0.25498491525650024,-0.5272557735443115
1714065741333041200,2.640041259765625,0.12055015563964844,0.3652111887931824,-0.48200511932373047
1714065741342921000,2.6499208984375,0.008368492126464844,0.4807044565677643,-0.34608256816864014
1714065741352799700,2.6597998046875,-0.11962604522705078,0.5306457281112671,-0.25817054510116577
1714065741362679600,2.669679443359375,-0.2752714157104492,0.5272464752197266,-0.3870846927165985
1714065741372560100,2.67956005859375,-0.329681396484375,0.5609084367752075,-0.8286195993423462
1714065741382439700,2.689439697265625,-0.5790901184082031,0.3243389427661896,-0.16843608021736145
1714065741392318700,2.699318603515625,-0.3552522659301758,0.06703126430511475,-0.3702493906021118
1714065741402198500,2.709198486328125,-0.2683124542236328,0.06854158639907837,-0.3374701142311096
1714065741412078800,2.719078857421875,-0.4131937026977539,0.15364980697631836,-0.4095157980918884
1714065741421958700,2.728958740234375,-0.5862855911254883,0.28196364641189575,-0.5143815279006958
1714065741431837400,2.73883740234375,-0.5824317932128906,0.3955576419830322,-0.467854380607605
1714065741441717200,2.74871728515625,-0.531102180480957,0.5376087427139282,-0.32954904437065125
1714065741451597800,2.758597900390625,-0.5021047592163086,0.7705352306365967,-0.06496824324131012
1714065741461477400,2.768477294921875,-0.3959474563598633,1.1127903461456299,0.15494541823863983
1714065741471356400,2.7783564453125,-0.3127326965332031,1.42680025100708,0.38552290201187134
1714065741481236000,2.788236083984375,-0.2638225555419922,1.6450982093811035,0.4996395707130432
1714065741491116500,2.798116455078125,-0.23523807525634766,1.7664403915405273,0.568327784538269
1714065741500996400,2.807996337890625,-0.2042093276977539,1.686376690864563,0.22578854858875275
1714065741510875100,2.817875244140625,-0.11349201202392578,1.4525139331817627,0.15229062736034393
1714065741520755000,2.8277548828125,-0.23759174346923828,0.5498221516609192,0.15734095871448517
1714065741530635500,2.837635498046875,0.3189868927001953,0.8398611545562744,0.4495401084423065
1714065741540515000,2.84751513671875,0.2609739303588867,0.5384618043899536,0.08131521195173264
1714065741550394000,2.85739404296875,0.09541034698486328,0.5146530270576477,0.014516793191432953
1714065741560273700,2.867273681640625,-0.13812732696533203,0.5785788893699646,-0.017586365342140198
1714065741570154200,2.877154296875,-0.29012489318847656,0.6562010049819946,0.00003178417682647705
1714065741580034000,2.887033935546875,-0.23487091064453125,0.692274808883667,0.07041740417480469
1714065741589912800,2.896912841796875,-0.14531421661376953,0.6006039381027222,0.04065015912055969
1714065741599792600,2.906792724609375,-0.11850643157958984,0.5445228815078735,0.16243141889572144
1714065741609673200,2.916673095703125,0.08903217315673828,0.5404244065284729,0.29515397548675537
1714065741619553000,2.926552978515625,0.2412281036376953,0.5226873159408569,0.25402888655662537
1714065741629431800,2.936431884765625,0.30838584899902344,0.6336981058120728,0.3637462854385376
1714065741639311600,2.9463115234375,0.3743419647216797,0.733431339263916,0.2945807874202728
1714065741649192000,2.95619189453125,0.3402519226074219,0.9009681344032288,0.40218421816825867
1714065741659071700,2.96607177734375,0.1959848403930664,0.9457024931907654,0.12468475103378296
1714065741668950500,2.975950439453125,-0.16489601135253906,1.0300955772399902,0.0907018780708313
1714065741678830300,2.985830322265625,-0.21384429931640625,1.147411584854126,-0.17068052291870117
1714065741688711000,2.9957109375,-0.2644948959350586,1.0414371490478516,-0.4587613344192505
1714065741698590500,3.005590576171875,-0.22265243530273438,0.9892239570617676,-0.5446111559867859
1714065741708469500,3.015469482421875,0.05682182312011719,0.9962344765663147,-0.30250221490859985
1714065741718349300,3.025349365234375,0.2612190246582031,0.7951191663742065,-0.20339620113372803
1714065741728229600,3.035229736328125,0.34308433532714844,0.517191469669342,0.030180394649505615
1714065741738109400,3.045109375,0.37922000885009766,0.3039546608924866,0.22842466831207275
1714065741747988200,3.05498828125,0.3173198699951172,0.22618603706359863,0.3023427426815033
1714065741757868000,3.064867919921875,0.2532072067260742,0.31021201610565186,0.10271376371383667
1714065741767748600,3.07474853515625,0.1702737808227539,0.49253928661346436,0.03163039684295654
1714065741777628200,3.084628173828125,0.032408714294433594,0.7098722457885742,0.20453466475009918
1714065741787507200,3.094507080078125,-0.06299972534179688,0.8182196021080017,0.05932691693305969
1714065741797387000,3.104386962890625,-0.08141517639160156,0.8587148785591125,0.029337286949157715
1714065741807267300,3.114267333984375,-0.045372962951660156,0.8549875617027283,0.19979597628116608
1714065741817147100,3.124147216796875,-0.1394023895263672,0.7931439280509949,-0.13323162496089935
1714065741827026000,3.13402587890625,-0.2977485656738281,0.8322199583053589,0.12038126587867737
1714065741836905700,3.14390576171875,-0.5404272079467773,0.8378472924232483,0.32529404759407043
1714065741846786300,3.153786376953125,-0.7858619689941406,0.8316704034805298,0.43099239468574524
1714065741856665900,3.163665771484375,-0.9091663360595703,0.8672822713851929,0.5219640135765076
1714065741866545000,3.173544921875,-0.9076747894287109,0.8382197022438049,0.48082345724105835
1714065741876424700,3.1834248046875,-0.7435541152954102,0.8429571986198425,0.4792660176753998
1714065741886305000,3.193304931640625,-0.6314687728881836,0.759751558303833,0.43142902851104736
1714065741896184800,3.203184814453125,-0.5493984222412109,0.464867502450943,0.42962273955345154
1714065741906063600,3.213063720703125,-0.49684715270996094,0.4372293949127197,0.22821632027626038
1714065741915943400,3.222943359375,-0.3039264678955078,0.5412235260009766,0.4984518885612488
1714065741925824000,3.232823974609375,-0.1896190643310547,0.6585186719894409,0.5796050429344177
1714065741935703600,3.24270361328125,-0.12913990020751953,0.6303325891494751,0.3633785843849182
1714065741945582600,3.25258251953125,-0.14042377471923828,0.6192499399185181,0.1438024789094925
1714065741955462400,3.26246240234375,-0.2787628173828125,0.672389805316925,0.00504138320684433
1714065741965342700,3.2723427734375,-0.41015625,0.692966878414154,0.013994339853525162
1714065741975222500,3.282222412109375,-0.5746517181396484,0.6359695196151733,0.012466609477996826
1714065741985101300,3.292101318359375,-0.6727561950683594,0.5296379327774048,-0.12404375523328781
1714065741994981000,3.301981201171875,-0.7150125503540039,0.6286832094192505,-0.07792752981185913
1714065742004861700,3.31186181640625,-0.7188892364501953,0.5520861148834229,-0.1421428769826889
1714065742014741500,3.321741455078125,-0.7110157012939453,0.3836608827114105,-0.17445538938045502
1714065742024620300,3.331620361328125,-0.6280813217163086,0.20877587795257568,-0.33841273188591003
1714065742034500000,3.3415,-0.45254039764404297,0.20589163899421692,-0.3522166311740875
1714065742044380400,3.35138037109375,-0.15065574645996094,0.2656526565551758,-0.2914290130138397
1714065742054260200,3.36126025390625,0.11779308319091797,0.32888710498809814,-0.29105645418167114
1714065742064139000,3.371138916015625,0.3864097595214844,0.420251727104187,-0.21982337534427643
1714065742074018800,3.381018798828125,0.5187444686889648,0.44651296734809875,-0.12766823172569275
1714065742083899400,3.3908994140625,0.5006637573242188,0.4734876751899719,0.0568714365363121
1714065742093779200,3.400779296875,0.4547462463378906,0.43301665782928467,0.16667114198207855
1714065742103658000,3.410657958984375,0.3225870132446289,0.5333832502365112,0.23428000509738922
1714065742113537800,3.420537841796875,-0.05670928955078125,0.8448373675346375,0.1325843334197998
1714065742123418000,3.430418212890625,-0.3940286636352539,1.1733691692352295,-0.08949591219425201
1714065742133298000,3.4402978515625,-0.5158424377441406,1.38511061668396,-0.5170960426330566
1714065742143176700,3.4501767578125,-0.1670064926147461,1.2663145065307617,-1.2946261167526245
1714065742153056500,3.460056396484375,0.24177837371826172,1.0058077573776245,-0.9521920084953308
1714065742162937000,3.46993701171875,0.47625255584716797,0.4442346394062042,-0.5476046800613403
1714065742172817000,3.47981689453125,0.5439777374267578,0.008751988410949707,-0.11900009959936142
1714065742182695700,3.48969580078125,0.38430309295654297,-0.21172577142715454,-0.20767159759998322
1714065742192575500,3.499575439453125,0.15893936157226562,-0.029402494430541992,-0.4146230220794678
1714065742202455800,3.509455810546875,-0.03190135955810547,0.3554763197898865,-0.8457680344581604
1714065742212335600,3.519335693359375,-0.2545127868652344,0.6866876482963562,-0.953432023525238
1714065742222214400,3.52921435546875,-0.42346954345703125,0.8477061986923218,-0.6770771741867065
1714065742232094200,3.53909423828125,-0.4760408401489258,0.9197471141815186,-0.1825365573167801
1714065742241974800,3.548974853515625,-0.3153047561645508,0.6720778942108154,-0.3110961318016052
1714065742251854300,3.558854248046875,-0.05087566375732422,0.2998279929161072,-0.800353467464447
1714065742261733400,3.5687333984375,0.4000091552734375,-0.00460284948348999,-0.9613522291183472
1714065742271613200,3.57861328125,0.8244047164916992,-0.27966630458831787,-0.8352845311164856
1714065742281493500,3.588493408203125,1.1298742294311523,-0.4862634539604187,-0.5551052093505859
1714065742291373300,3.598373291015625,1.164189338684082,-0.5667277574539185,-0.3082868456840515
1714065742301252000,3.608252197265625,1.0044422149658203,-0.5088030695915222,-0.13630980253219604
1714065742311132000,3.6181318359375,0.7634153366088867,-0.3681984543800354,-0.24310770630836487
1714065742321012500,3.628012451171875,0.4629535675048828,-0.17563292384147644,-0.39145052433013916
1714065742330892300,3.637892333984375,0.28476905822753906,0.056168198585510254,-0.6008536219596863
1714065742340771000,3.64777099609375,0.07585620880126953,0.2432328164577484,-0.5376744270324707
1714065742350651000,3.65765087890625,-0.15882301330566406,0.3758770823478699,-0.422760009765625
1714065742360531200,3.66753125,-0.20903396606445312,0.4769752621650696,-0.40263059735298157
1714065742370411000,3.677410888671875,-0.3235340118408203,0.5450505614280701,-0.4587401747703552
1714065742380289800,3.687289794921875,-0.5403251647949219,0.590603232383728,-0.5626702308654785
1714065742390169600,3.697169677734375,-0.8495397567749023,0.5832473635673523,-0.6410896182060242
1714065742400050200,3.70705029296875,-1.1530160903930664,0.5355662703514099,-0.708957314491272
1714065742409930000,3.716929931640625,-1.4125947952270508,0.5935760736465454,-0.7351169586181641
1714065742419808800,3.726808837890625,-1.5902338027954102,0.623487651348114,-0.8028398156166077
1714065742429688600,3.7366884765625,-1.7745113372802734,0.6902851462364197,-0.8663539886474609
1714065742439569000,3.74656884765625,-1.7863807678222656,0.7046551704406738,-0.6889328956604004
1714065742449448700,3.75644873046875,-1.638289451599121,0.7180020809173584,-0.5263558030128479
1714065742459327500,3.766327392578125,-1.5121288299560547,0.7602683305740356,-0.5053552389144897
1714065742469207300,3.776207275390625,-1.2526626586914062,0.6217424869537354,-0.5781413912773132
1714065742479087900,3.786087890625,-1.053654670715332,0.51141357421875,-0.5469030141830444
1714065742488967700,3.7959677734375,-0.7860469818115234,0.3576374650001526,-0.48180198669433594
1714065742498846500,3.805846435546875,-0.5933189392089844,0.269132524728775,-0.3497859537601471
1714065742508726300,3.815726318359375,-0.4346933364868164,0.288219690322876,-0.26579421758651733
1714065742518606600,3.825606689453125,-0.42229747772216797,0.21470779180526733,-0.43239977955818176
1714065742528486400,3.835486328125,-0.5532894134521484,0.17192429304122925,-0.46964967250823975
1714065742538365200,3.845365234375,-0.7054481506347656,0.07233422994613647,-0.4191102385520935
1714065742548245000,3.855244873046875,-0.8715133666992188,0.11938589811325073,-0.40101104974746704
1714065742558125600,3.86512548828125,-1.0776596069335938,0.20813247561454773,-0.4447389543056488
1714065742568005000,3.875005126953125,-1.2735929489135742,0.279026597738266,-0.5342428684234619
1714065742577884200,3.88488427734375,-1.4186887741088867,0.33020317554473877,-0.6990078687667847
1714065742587764000,3.894763916015625,-1.5917978286743164,0.4726378917694092,-0.889745831489563
1714065742597644300,3.904644287109375,-1.6734085083007812,0.5926783084869385,-1.0158743858337402
1714065742607524000,3.914524169921875,-1.6613426208496094,0.7468115091323853,-1.1726657152175903
1714065742617403000,3.92440283203125,-1.5892791748046875,1.0405347347259521,-1.2615149021148682
1714065742627282700,3.93428271484375,-1.4884748458862305,1.2673743963241577,-1.00455904006958
1714065742637163300,3.944163330078125,-1.4092216491699219,1.378907322883606,-0.7716429233551025
1714065742647043000,3.95404296875,-1.325303077697754,1.3262149095535278,-0.6472175121307373
1714065742656921900,3.963921875,-1.2798328399658203,1.1129581928253174,-0.6679884195327759
1714065742666801700,3.9738017578125,-1.1940364837646484,1.1315102577209473,-0.49102169275283813
1714065742676682000,3.983681884765625,-1.1755666732788086,1.0389835834503174,-0.3165842890739441
1714065742686561800,3.993561767578125,-1.116826057434082,0.785965085029602,-0.3590112328529358
1714065742696440600,4.003440673828125,-1.1062345504760742,0.44408971071243286,-0.2977108061313629
1714065742706320400,4.0133203125,-1.0529193878173828,0.37146589159965515,-0.15624743700027466
1714065742716201000,4.023200927734375,-0.7589025497436523,0.4338768422603607,-0.011876404285430908
1714065742726080500,4.03308056640625,-0.5926609039306641,0.5087221264839172,0.26098954677581787
1714065742735959600,4.04295947265625,-0.6136608123779297,0.46537670493125916,0.4025520086288452
1714065742745839400,4.05283935546875,-0.6996221542358398,0.40560731291770935,0.3341282606124878
1714065742755719700,4.0627197265625,-0.8096752166748047,0.2716749310493469,0.04564058780670166
1714065742765599500,4.072599609375,-0.831355094909668,0.16451813280582428,-0.12477925419807434
1714065742775478300,4.082478271484375,-0.7743072509765625,-0.0038198381662368774,-0.13788065314292908
1714065742785358000,4.092358154296875,-0.5431146621704102,0.0336812287569046,0.05515950918197632
1714065742795238700,4.10223876953125,-0.3722085952758789,0.0753992348909378,0.14574602246284485
1714065742805118200,4.1121181640625,-0.3187122344970703,-0.11112560331821442,0.01723325252532959
1714065742814997200,4.121997314453125,-0.32013702392578125,-0.28238603472709656,0.036784082651138306
1714065742824876800,4.131876708984375,-0.2568378448486328,-0.1601431667804718,0.0783420205116272
1714065742834757400,4.14175732421875,-0.1622943878173828,0.1376684457063675,-0.3235495090484619
1714065742844637200,4.15163720703125,0.08530330657958984,0.40546149015426636,-0.8475315570831299
1714065742854516000,4.161515869140625,0.17995166778564453,0.7043353915214539,-0.9434309601783752
1714065742864395800,4.171395751953125,0.38712596893310547,0.8291239738464355,-0.821462094783783
1714065742874276400,4.1812763671875,0.5608596801757812,0.6761822700500488,-0.6529979705810547
1714065742884156000,4.191156005859375,0.4432687759399414,-0.12357306480407715,-0.3829910457134247
1714065742894035000,4.201034912109375,0.5603370666503906,0.04310932755470276,-0.1674826443195343
1714065742903914500,4.21091455078125,0.6486778259277344,-0.31479641795158386,-0.6971995830535889
1714065742913795000,4.220795166015625,0.6724100112915039,-0.12446510791778564,-0.3708364963531494
1714065742923675000,4.2306748046875,0.5718421936035156,0.0485072135925293,-0.038439035415649414
1714065742933553700,4.2405537109375,0.45700550079345703,0.16939133405685425,0.2375059425830841
1714065742943433500,4.25043359375,0.25376224517822266,0.2371079921722412,0.2654094099998474
1714065742953314000,4.26031396484375,0.1246500015258789,0.17801257967948914,0.16844339668750763
1714065742963193600,4.270193603515625,0.026485443115234375,0.20939108729362488,0.13773028552532196
1714065742973072400,4.280072265625,-0.009710311889648438,0.23944124579429626,0.057435303926467896
1714065742982952200,4.2899521484375,-0.03655433654785156,0.15272420644760132,-0.1716589629650116
1714065742992832800,4.299832763671875,0.1466684341430664,0.009628206491470337,-0.34951290488243103
1714065743002712600,4.309712646484375,0.47035884857177734,-0.1881031095981598,-0.5539544820785522
1714065743012591400,4.31959130859375,0.8316192626953125,-0.38572272658348083,-0.690324068069458
1714065743022471200,4.32947119140625,1.146810531616211,-0.36672964692115784,-1.083359956741333
1714065743032351500,4.3393515625,1.337214469909668,-0.27388688921928406,-1.0611553192138672
1714065743042231300,4.349231201171875,1.3386363983154297,-0.09601166844367981,-0.7178263664245605
1714065743052110000,4.359110107421875,1.361668586730957,0.020106032490730286,-0.7621495723724365
1714065743061990000,4.368989990234375,1.353708267211914,0.07043616473674774,-0.7738708257675171
1714065743071870500,4.378870361328125,1.2933273315429688,0.050358161330223083,-0.5842861533164978
1714065743081750000,4.38875,1.2069101333618164,-0.08149676024913788,-0.404701828956604
1714065743091629000,4.398629150390625,1.1494426727294922,-0.24061733484268188,-0.3440355360507965
1714065743101508900,4.4085087890625,0.9966554641723633,-0.3922126889228821,-0.40405428409576416
1714065743111389200,4.41838916015625,0.8538370132446289,-0.4605191648006439,-0.5437412261962891
1714065743121269000,4.42826904296875,0.7114133834838867,-0.4513869881629944,-0.7659711837768555
1714065743131147800,4.438147705078125,0.6864147186279297,-0.52057284116745,-1.2052897214889526
1714065743141027600,4.448027587890625,0.8597230911254883,-0.5742391347885132,-1.3267648220062256
1714065743150908200,4.457908203125,1.0039548873901367,-0.5493466258049011,-1.1367781162261963
1714065743160788000,4.4677880859375,1.1692867279052734,-0.585857629776001,-0.9564685821533203
1714065743170666800,4.477666748046875,1.2338275909423828,-0.5810410380363464,-0.9553574919700623
1714065743180546600,4.487546630859375,1.2431755065917969,-0.5468447208404541,-0.8845178484916687
1714065743190427000,4.497427001953125,1.1807546615600586,-0.43704140186309814,-0.8636473417282104
1714065743200306700,4.507306640625,0.9823093414306641,-0.33157551288604736,-0.7928173542022705
1714065743210185500,4.517185546875,0.8201932907104492,-0.23915037512779236,-0.6659605503082275
1714065743220065300,4.527065185546875,0.744537353515625,-0.20673662424087524,-0.9571009278297424
1714065743229945900,4.53694580078125,0.5880031585693359,-0.022077590227127075,-1.118408441543579
1714065743239825400,4.546825439453125,0.5442399978637695,0.13211043179035187,-1.1283527612686157
1714065743249704400,4.556704345703125,0.5508432388305664,0.24301081895828247,-1.3588823080062866
1714065743259584000,4.566583984375,0.5288429260253906,0.36183759570121765,-1.560236930847168
1714065743269464600,4.576464599609375,0.49259471893310547,0.42658987641334534,-1.3520805835723877
1714065743279344400,4.586344482421875,0.48748016357421875,0.38453590869903564,-1.114694595336914
1714065743289223200,4.59622314453125,0.5062351226806641,0.3118669092655182,-0.8622750043869019
1714065743299103000,4.60610302734375,0.4676237106323242,0.33057621121406555,-0.6763181686401367
1714065743308983300,4.6159833984375,0.44585132598876953,0.3812950849533081,-0.9389714002609253
1714065743318863000,4.625863037109375,0.48148059844970703,0.45889145135879517,-1.0736726522445679
1714065743328742000,4.635741943359375,0.4429960250854492,0.5101934671401978,-1.0563795566558838
1714065743338621700,4.64562158203125,0.4308595657348633,0.5230578184127808,-0.932383120059967
1714065743348502300,4.655502197265625,0.4019813537597656,0.47263121604919434,-0.8735387921333313
1714065743358382000,4.665382080078125,0.4666604995727539,0.397311270236969,-0.8623591661453247
1714065743368260900,4.6752607421875,0.5984067916870117,0.3029676675796509,-0.9389351606369019
1714065743378140700,4.685140625,0.6477870941162109,0.19865158200263977,-0.9302852749824524
1714065743388021000,4.69502099609375,0.6961784362792969,0.1011236160993576,-0.879496693611145
1714065743397900800,4.70490087890625,0.8377265930175781,-0.013749778270721436,-0.6949833631515503
1714065743407779600,4.714779541015625,1.0166893005371094,-0.14369642734527588,-0.5337640047073364
1714065743417659400,4.724659423828125,1.0935173034667969,-0.22515740990638733,-0.394973486661911
1714065743427540000,4.7345400390625,1.0204963684082031,-0.25154879689216614,-0.3323723077774048
1714065743437419500,4.74441943359375,0.9414224624633789,-0.219009667634964,-0.2676014304161072
1714065743447298600,4.754298583984375,1.028264045715332,-0.23547443747520447,-0.1518881916999817
1714065743457178000,4.76417822265625,1.1158208847045898,-0.2893730401992798,0.05330854654312134
1714065743467058700,4.77405859375,1.2935543060302734,-0.3195715844631195,0.0232846736907959
1714065743476938500,4.7839384765625,1.3810663223266602,-0.32879766821861267,0.009310126304626465
1714065743486817300,4.7938173828125,1.3352174758911133,-0.24311494827270508,0.10248667001724243
1714065743496697000,4.803697021484375,1.3160457611083984,-0.13084331154823303,0.09822231531143188
1714065743506577700,4.81357763671875,1.3208322525024414,-0.12778043746948242,0.020973294973373413
1714065743516457200,4.823457275390625,1.3915948867797852,-0.1730080395936966,-0.030123814940452576
1714065743526336000,4.8333359375,1.3671836853027344,-0.2767811119556427,-0.04692964255809784
1714065743536215800,4.8432158203125,1.4304590225219727,-0.38162970542907715,0.009156331419944763
1714065743546096400,4.853096435546875,1.449864387512207,-0.5663249492645264,-0.009546294808387756
1714065743555976200,4.86297607421875,1.5457954406738281,-0.6748964190483093,0.057096630334854126
1714065743565855000,4.87285498046875,1.507904052734375,-0.6968656778335571,0.061065852642059326
1714065743575734800,4.88273486328125,1.5920333862304688,-0.6843599081039429,0.07729631662368774
1714065743585615000,4.892614990234375,1.5351753234863281,-0.6865014433860779,0.05107377469539642
1714065743595495000,4.902494873046875,1.4594535827636719,-0.7315318584442139,-0.031466543674468994
1714065743605373700,4.912373779296875,1.4078826904296875,-0.6548263430595398,-0.04148750752210617
1714065743615253500,4.92225341796875,1.3159198760986328,-0.509253978729248,0.029514983296394348
1714065743625134000,4.932134033203125,1.209930419921875,-0.4190569818019867,0.017964839935302734
1714065743635013600,4.942013671875,1.068460464477539,-0.47017955780029297,-0.17243435978889465
1714065743644892700,4.951892578125,0.9226465225219727,-0.5505029559135437,-0.338735967874527
1714065743654772200,4.961772216796875,0.9492292404174805,-0.5873979330062866,-0.32075247168540955
1714065743664652800,4.97165283203125,0.9089794158935547,-0.6275740265846252,-0.34985655546188354
1714065743674532600,4.98153271484375,0.8426799774169922,-0.619219183921814,-0.38006311655044556
1714065743684411400,4.991411376953125,0.6381769180297852,-0.5618583559989929,-0.41362786293029785
1714065743694291200,5.001291259765625,0.462982177734375,-0.5216437578201294,-0.4806007742881775
1714065743704171800,5.011171875,0.2788114547729492,-0.46928560733795166,-0.38922208547592163
1714065743714051300,5.02105126953125,0.08806133270263672,-0.3778438866138458,-0.35405784845352173
1714065743723930400,5.030930419921875,-0.16657066345214844,-0.38582444190979004,-0.4488650858402252
1714065743733810000,5.040809814453125,-0.29148197174072266,-0.4454440474510193,-0.48693522810935974
1714065743743690500,5.0506904296875,-0.40401649475097656,-0.5806338787078857,-0.7117788195610046
1714065743753570300,5.0605703125,-0.3632993698120117,-0.6031419634819031,-0.814738929271698
1714065743763449000,5.070448974609375,-0.5327186584472656,-0.5741294026374817,-0.9109894037246704
1714065743773329000,5.080328857421875,-0.7087974548339844,-0.5896288156509399,-1.1054046154022217
1714065743783209200,5.090209228515625,-0.4378337860107422,-0.6311360001564026,-1.1457695960998535
1714065743793089000,5.100089111328125,-0.44224071502685547,-0.7586036920547485,-1.0308936834335327
1714065743802967800,5.1099677734375,-0.13873767852783203,-0.932533860206604,-0.8857852220535278
1714065743812847600,5.11984765625,0.00140380859375,-1.0393924713134766,-0.8126057386398315
1714065743822728200,5.129728271484375,0.05737781524658203,-1.1517000198364258,-0.8635971546173096
1714065743832607700,5.139607666015625,0.12967300415039062,-1.0952544212341309,-0.8354495763778687
1714065743842486800,5.14948681640625,0.1466045379638672,-0.9584115147590637,-0.7119934558868408
1714065743852366300,5.159366455078125,0.09397125244140625,-0.8838480710983276,-0.6560925245285034
1714065743862247000,5.169246826171875,0.08178520202636719,-0.8375949263572693,-0.6196972131729126
1714065743872126700,5.179126708984375,0.02634429931640625,-0.8479523658752441,-0.597751259803772
1714065743882005500,5.189005615234375,0.07581520080566406,-0.8625921010971069,-0.5206030011177063
1714065743891885300,5.19888525390625,0.1344451904296875,-0.9110349416732788,-0.4552518427371979
1714065743901766000,5.208765869140625,0.1401958465576172,-0.9240813255310059,-0.4908822178840637
1714065743911645400,5.2186455078125,0.4126434326171875,-0.8138271570205688,-0.4010065197944641
1714065743921524500,5.2285244140625,-0.033901214599609375,-0.17868463695049286,0.11642956733703613
1714065743931404000,5.238404052734375,2.559846878051758,-0.25930455327033997,1.4530092477798462
1714065743941284600,5.24828466796875,2.342161178588867,-1.07889723777771,1.587490439414978
1714065743951164400,5.258164306640625,-0.020383834838867188,-1.2966300249099731,-0.7239850759506226
1714065743961043200,5.268043212890625,-0.9213428497314453,-0.987589418888092,-1.0878435373306274
1714065743970923000,5.277923095703125,-1.478017807006836,-0.39293140172958374,-1.550662875175476
1714065743980803300,5.28780322265625,2.776578903198242,-0.549962043762207,-2.0492424964904785
1714065743990683100,5.29768310546875,6.000703811645508,-0.5388606786727905,1.4459723234176636
1714065744000562000,5.30756201171875,0.7723703384399414,0.060144901275634766,2.0813140869140625
1714065744010441700,5.317441650390625,-6.064379692077637,0.1431293487548828,0.7808467149734497
1714065744020322300,5.327322265625,-1.1678590774536133,-0.2065117061138153,-2.5100317001342773
1714065744030201900,5.337201904296875,1.2111997604370117,-1.2558871507644653,-0.8112208247184753
1714065744040081000,5.347080810546875,1.3872194290161133,-1.1249027252197266,1.9014756679534912
1714065744049960400,5.35696044921875,0.44286155700683594,-0.4903399348258972,0.6144745349884033
1714065744059841000,5.366841064453125,-0.6925764083862305,-0.47525715827941895,0.00007812678813934326
1714065744069720800,5.376720947265625,-0.9392328262329102,-0.8515534400939941,-0.8157182335853577
1714065744079599600,5.386599609375,0.011183738708496094,-2.1302080154418945,-1.8570901155471802
1714065744089479400,5.3964794921875,0.121002197265625,-1.1190149784088135,-0.45888248085975647
1714065744099360000,5.406360107421875,-0.27573299407958984,-1.1623672246932983,0.13705313205718994
1714065744109239600,5.416239501953125,-0.1126546859741211,-1.1507751941680908,0.5791640281677246
1714065744119118600,5.42611865234375,0.9049568176269531,-1.0542598962783813,0.7904170751571655
1714065744128998100,5.435998046875,0.9075956344604492,-0.9997974634170532,-0.2234267294406891
1714065744138878700,5.445878662109375,-0.35994434356689453,-0.5653955340385437,-0.280089408159256
1714065744148758500,5.455758544921875,-0.2028970718383789,0.17356273531913757,0.23853275179862976
1714065744158637300,5.46563720703125,-0.6140613555908203,0.7494667768478394,0.7445579767227173
1714065744168517000,5.47551708984375,-1.2110834121704102,1.2748736143112183,-0.26997384428977966
1714065744178397400,5.4853974609375,-0.8822660446166992,0.9283809661865234,0.26434430480003357
1714065744188277200,5.49527734375,-0.3437175750732422,0.674689769744873,0.7188843488693237
1714065744198156000,5.505156005859375,1.1602411270141602,1.4744632244110107,0.4582427442073822
1714065744208035800,5.515035888671875,0.6564083099365234,1.5004384517669678,0.43186473846435547
1714065744217916400,5.52491650390625,-1.1620912551879883,1.7009615898132324,0.463846892118454
1714065744227796000,5.5347958984375,-1.1591529846191406,0.6854567527770996,-0.6979773044586182
1714065744237675000,5.544675048828125,-1.2926673889160156,-0.24472644925117493,-0.5687018036842346
1714065744247554600,5.554554443359375,-0.45877933502197266,-0.022497981786727905,0.27723878622055054
1714065744257435100,5.56443505859375,-0.5751705169677734,-0.28897666931152344,0.10000427067279816
1714065744267315000,5.57431494140625,-0.29485034942626953,-0.4679484963417053,-0.0039817169308662415
1714065744277193700,5.58419384765625,0.24517536163330078,-0.2260885238647461,0.01633840799331665
1714065744287073500,5.594073486328125,0.21320438385009766,-0.5687813758850098,-0.22229909896850586
1714065744296954000,5.6039541015625,0.0930032730102539,-0.26954248547554016,0.06107143312692642
1714065744306833700,5.613833740234375,-0.6789035797119141,0.3481310307979584,-0.19512709975242615
1714065744316712400,5.62371240234375,-0.6632270812988281,0.6620296835899353,-0.005517065525054932
1714065744326592300,5.63359228515625,-0.24638843536376953,0.22854655981063843,0.06078110635280609
1714065744336472800,5.643472900390625,0.014098167419433594,-0.5231451392173767,0.3181193470954895
1714065744346352600,5.6533525390625,-0.0079345703125,-0.08764657378196716,0.6549739837646484
1714065744356231400,5.6632314453125,-0.22804832458496094,-0.030000507831573486,0.1360345184803009
1714065744366111200,5.673111328125,0.001476287841796875,-0.5038415193557739,0.18569160997867584
1714065744375991600,5.682991455078125,-0.03946685791015625,-0.6731271147727966,0.3776116967201233
1714065744385871400,5.692871337890625,-0.08033180236816406,-0.4977518916130066,0.3090862035751343
1714065744395750100,5.702750244140625,-0.07325458526611328,-0.6018890142440796,0.015098482370376587
1714065744405630000,5.7126298828125,-0.030327796936035156,-0.60251384973526,0.049123138189315796
1714065744415510500,5.722510498046875,-0.15467548370361328,-0.2925570607185364,0.24404752254486084
1714065744425390000,5.73239013671875,-0.2931251525878906,-0.340426504611969,0.25399795174598694
1714065744435269000,5.74226904296875,-0.41694068908691406,0.12390214204788208,0.35237741470336914
1714065744445148700,5.752148681640625,-0.3158864974975586,-0.09795551002025604,0.186044842004776
1714065744455029200,5.762029296875,-0.3845787048339844,-0.2615789771080017,0.12618690729141235
1714065744464909000,5.771908935546875,-0.3790292739868164,-0.21796706318855286,0.2939232587814331
1714065744474787800,5.781787841796875,-0.22777557373046875,-0.506542980670929,0.15973103046417236
1714065744484667600,5.791667724609375,0.05209636688232422,-0.8829249143600464,-0.07308736443519592
1714065744494548200,5.80154833984375,0.02563953399658203,-0.4254804253578186,0.3880328834056854
1714065744504427800,5.811427734375,-0.10338020324707031,-0.3495762348175049,0.17657017707824707
1714065744514306600,5.821306640625,-0.052939414978027344,-0.2044234275817871,0.07818178087472916
1714065744524186400,5.831186279296875,-0.028903961181640625,-0.17645889520645142,0.0037397965788841248
1714065744534067000,5.84106689453125,0.2601299285888672,-0.020052317529916763,0.39798617362976074
1714065744543946500,5.850946533203125,-0.1584491729736328,-0.1368948221206665,0.16427677869796753
1714065744553825500,5.860825439453125,-0.1389789581298828,-0.24639886617660522,0.06519589573144913
1714065744563705300,5.870705322265625,-0.15298080444335938,-0.12651711702346802,0.46198293566703796
1714065744573585700,5.880585693359375,-0.09050750732421875,-0.15622997283935547,0.23429207503795624
1714065744583465500,5.890465576171875,-0.11416435241699219,-0.38705724477767944,-0.12655869126319885
1714065744593344300,5.90034423828125,-0.29776573181152344,-0.22203806042671204,0.08449814468622208
1714065744603224000,5.91022412109375,-0.1728382110595703,-0.18866270780563354,0.16104598343372345
1714065744613104600,5.920104736328125,-0.03628349304199219,-0.1716696172952652,0.17732930183410645
1714065744622984200,5.929984130859375,-0.13410663604736328,-0.2888154089450836,-0.0022516772150993347
1714065744632863200,5.93986328125,-0.1695852279663086,-0.31528767943382263,0.11817026138305664
1714065744642742800,5.94974267578125,0.0505523681640625,-0.305940717458725,0.19958969950675964
1714065744652623400,5.959623291015625,-0.08330821990966797,-0.2945992648601532,0.19593647122383118
1714065744662503200,5.969503173828125,-0.38639068603515625,-0.13228505849838257,0.30502352118492126
1714065744672382000,5.9793818359375,-0.2087116241455078,-0.18860511481761932,0.14055436849594116
1714065744682261800,5.98926171875,-0.22490787506103516,-0.2668808698654175,0.032832540571689606
1714065744692142000,5.99914208984375,-0.059561729431152344,-0.33914273977279663,0.06542118638753891
1714065744702022000,6.00902197265625,-0.08681392669677734,-0.2768711745738983,0.14102531969547272
1714065744711900700,6.018900634765625,-0.1654043197631836,-0.16607904434204102,0.17758150398731232
1714065744721780500,6.028780517578125,-0.19559955596923828,-0.09172137826681137,0.1336066871881485
1714065744731661000,6.0386611328125,-0.29592132568359375,-0.11506316810846329,0.12428992241621017
1714065744741540600,6.04854052734375,-0.2556753158569336,-0.16904576122760773,0.12985673546791077
1714065744751419600,6.058419677734375,-0.2655324935913086,-0.24989934265613556,0.1680477261543274
1714065744761299200,6.06829931640625,-0.16925811767578125,-0.20300574600696564,0.20059466361999512
1714065744771179800,6.0781796875,-0.1452035903930664,-0.2130361795425415,0.16136986017227173
1714065744781059600,6.0880595703125,-0.0556640625,-0.1853526532649994,0.13758334517478943
1714065744790938400,6.0979384765625,-0.050024986267089844,-0.17123281955718994,0.08642181754112244
1714065744800818200,6.107818115234375,-0.035056114196777344,-0.1163107305765152,0.21617451310157776
1714065744810698800,6.11769873046875,-0.15687942504882812,-0.16812323033809662,0.11764082312583923
1714065744820578300,6.127578369140625,-0.14012908935546875,-0.16197143495082855,0.14588189125061035
1714065744830457000,6.13745703125,-0.0648040771484375,-0.16781291365623474,0.11727216839790344
1714065744840337000,6.1473369140625,-0.0919637680053711,-0.2465313971042633,0.07030855119228363
1714065744850217500,6.157217529296875,-0.1445770263671875,-0.25155213475227356,0.08570203185081482
1714065744860097000,6.167096923828125,-0.1256866455078125,-0.18857711553573608,0.09353627264499664
1714065744869976000,6.17697607421875,-0.10004711151123047,-0.14536026120185852,0.06828415393829346
1714065744879855900,6.18685595703125,-0.18077468872070312,-0.1213364228606224,0.0979602187871933
1714065744889736200,6.196736083984375,-0.1400928497314453,-0.14455652236938477,0.0731152892112732
1714065744899616000,6.206615966796875,-0.06948375701904297,-0.1652744859457016,0.0766952782869339
1714065744909494800,6.216494873046875,-0.07774162292480469,-0.17647090554237366,0.10140325129032135
1714065744919374600,6.22637451171875,-0.10940361022949219,-0.15452198684215546,0.11392836272716522
1714065744929255000,6.2362548828125,-0.1122884750366211,-0.14235404133796692,0.1333085298538208
1714065744939134700,6.246134765625,-0.12454032897949219,-0.13262471556663513,0.13353076577186584
1714065744949013500,6.256013427734375,-0.14129638671875,-0.12529177963733673,0.1103273332118988
1714065744958893300,6.265893310546875,-0.1177511215209961,-0.14868393540382385,0.08515769243240356
1714065744968774000,6.27577392578125,-0.09459972381591797,-0.14591199159622192,0.07441121339797974
1714065744978653700,6.28565380859375,-0.09772968292236328,-0.15036541223526,0.04736720025539398
1714065744988532500,6.295532470703125,-0.08668327331542969,-0.13120269775390625,0.056086838245391846
1714065744998412300,6.305412353515625,-0.08523941040039062,-0.11236116290092468,0.07655066251754761
1714065745008292600,6.315292724609375,-0.09794044494628906,-0.11948798596858978,0.10126326978206635
1714065745018172400,6.32517236328125,-0.09630680084228516,-0.12897031009197235,0.1256840080022812
1714065745028051200,6.33505126953125,-0.08999156951904297,-0.1265236884355545,0.12144726514816284
1714065745037931000,6.344930908203125,-0.10497188568115234,-0.11482101678848267,0.11021852493286133
1714065745047811600,6.3548115234375,-0.11028575897216797,-0.12450118362903595,0.08976013958454132
1714065745057691100,6.364691162109375,-0.09432506561279297,-0.11754070222377777,0.08141367137432098
1714065745067570000,6.37456982421875,-0.09275054931640625,-0.11293059587478638,0.051898613572120667
1714065745077449700,6.38444970703125,-0.08413887023925781,-0.11310569941997528,0.044063225388526917
1714065745087330300,6.394330322265625,-0.054485321044921875,-0.10857151448726654,0.03412237763404846
1714065745097209900,6.4042099609375,-0.0677042007446289,-0.10894113779067993,0.07378529012203217
1714065745107089000,6.4140888671875,-0.07834720611572266,-0.10224011540412903,0.1104346215724945
1714065745116968400,6.423968505859375,-0.0770425796508789,-0.10271337628364563,0.10880599915981293
1714065745126849000,6.43384912109375,-0.08988189697265625,-0.09835255146026611,0.1259164810180664
1714065745136728800,6.443728759765625,-0.086029052734375,-0.11066368222236633,0.0933036059141159
1714065745146607600,6.453607666015625,-0.08694648742675781,-0.11323311924934387,0.08477619290351868
1714065745156487400,6.4634873046875,-0.07607841491699219,-0.09692412614822388,0.04814237356185913
1714065745166368000,6.473367919921875,-0.06538963317871094,-0.10454869270324707,0.0378955602645874
1714065745176247600,6.48324755859375,-0.05959033966064453,-0.0930929034948349,0.028058961033821106
1714065745186126300,6.493126220703125,-0.05859661102294922,-0.0935991108417511,0.041928231716156006
1714065745196006100,6.503006103515625,-0.05761909484863281,-0.07997378706932068,0.05556437373161316
1714065745205886700,6.51288671875,-0.05430412292480469,-0.08070074021816254,0.09486940503120422
1714065745215766500,6.5227666015625,-0.08635807037353516,-0.08388739824295044,0.10056252777576447
1714065745225645300,6.532645263671875,-0.0825662612915039,-0.07289579510688782,0.11086910963058472
1714065745235525000,6.542525146484375,-0.07177257537841797,-0.0762125551700592,0.0902797132730484
1714065745245405400,6.552405517578125,-0.08705615997314453,-0.08653880655765533,0.06308847665786743
1714065745255285200,6.56228515625,-0.06441688537597656,-0.08009184896945953,0.03399822115898132
1714065745265164000,6.5721640625,-0.05392742156982422,-0.0832887589931488,0.012455344200134277
1714065745275043800,6.5820439453125,-0.053028106689453125,-0.06983345746994019,0.02423030138015747
1714065745284924400,6.59192431640625,-0.045083045959472656,-0.08261813223361969,0.042871564626693726
1714065745294804000,6.601803955078125,-0.04433250427246094,-0.06929360330104828,0.056493744254112244
1714065745304682800,6.611682861328125,-0.041240692138671875,-0.05854536592960358,0.06518043577671051
1714065745314562600,6.6215625,-0.059383392333984375,-0.0572735071182251,0.09714481234550476
1714065745324443100,6.631443115234375,-0.06310081481933594,-0.06779609620571136,0.09808918833732605
1714065745334322700,6.64132275390625,-0.0667581558227539,-0.06648963689804077,0.0872490406036377
1714065745344201700,6.65120166015625,-0.07270622253417969,-0.06743967533111572,0.06246432662010193
1714065745354081500,6.66108154296875,-0.059722900390625,-0.06143081188201904,0.03326478600502014
1714065745363961900,6.6709619140625,-0.054017066955566406,-0.07670985162258148,0.013968691229820251
1714065745373841700,6.680841552734375,-0.05547142028808594,-0.06583812832832336,0.011593043804168701
1714065745383720400,6.690720458984375,-0.042777061462402344,-0.06691858172416687,0.023382127285003662
1714065745393600300,6.700600341796875,-0.037353515625,-0.06327497959136963,0.04426974058151245
1714065745403480800,6.710480712890625,-0.04379463195800781,-0.06910887360572815,0.06257446110248566
1714065745413360400,6.7203603515625,-0.033649444580078125,-0.0560096800327301,0.08057644963264465
1714065745423239200,6.7302392578125,-0.056629180908203125,-0.054899826645851135,0.08638794720172882
1714065745433119000,6.740118896484375,-0.05097484588623047,-0.05380846560001373,0.07091480493545532
1714065745442999600,6.74999951171875,-0.054831504821777344,-0.05026403069496155,0.06287916004657745
1714065745452879000,6.759879150390625,-0.053915977478027344,-0.046895772218704224,0.038381025195121765
1714065745462758100,6.769758056640625,-0.03889274597167969,-0.06712564826011658,0.007347956299781799
1714065745472637700,6.7796376953125,-0.03824043273925781,-0.06335699558258057,0.007317304611206055
1714065745482518300,6.789518310546875,-0.030541419982910156,-0.0527079701423645,0.007406547665596008
1714065745492398000,6.799398193359375,-0.03238677978515625,-0.049299001693725586,0.023973628878593445
1714065745502276900,6.80927685546875,-0.04126548767089844,-0.03888431191444397,0.05909815430641174
1714065745512156700,6.81915673828125,-0.021742820739746094,-0.04264901578426361,0.06303270161151886
1714065745522037000,6.829037109375,-0.04492378234863281,-0.029990941286087036,0.08102691173553467
1714065745531916800,6.838916748046875,-0.04888439178466797,-0.038734033703804016,0.0751766562461853
1714065745541795600,6.848795654296875,-0.057483673095703125,-0.04732903838157654,0.07401548326015472
1714065745551675400,6.85867529296875,-0.061232566833496094,-0.04400980472564697,0.04462331533432007
1714065745561556000,6.868555908203125,-0.03902244567871094,-0.04545430839061737,0.025137752294540405
1714065745571435500,6.878435546875,-0.04072380065917969,-0.044520556926727295,0.003622770309448242
1714065745581314600,6.888314453125,-0.032982826232910156,-0.0483107715845108,0.006127581000328064
1714065745591194000,6.898194091796875,-0.020664215087890625,-0.054392024874687195,0.010944873094558716
1714065745601074700,6.90807470703125,-0.020318031311035156,-0.03682994842529297,0.02968776226043701
1714065745610954500,6.91795458984375,-0.027042388916015625,-0.03603997826576233,0.048237547278404236
1714065745620833300,6.927833251953125,-0.028944015502929688,-0.0374981164932251,0.07354073226451874
1714065745630713000,6.937713134765625,-0.02846240997314453,-0.02728024125099182,0.07958859205245972
1714065745640593400,6.947593505859375,-0.05153083801269531,-0.029003620147705078,0.06434793770313263
1714065745650473200,6.95747314453125,-0.04596424102783203,-0.028344109654426575,0.058778032660484314
1714065745660352000,6.96735205078125,-0.04755401611328125,-0.046531692147254944,0.029756322503089905
1714065745670231800,6.977231689453125,-0.032634735107421875,-0.043228402733802795,0.012870043516159058
1714065745680112400,6.9871123046875,-0.02973175048828125,-0.03515252470970154,0.005682021379470825
1714065745689992000,6.996991943359375,-0.019817352294921875,-0.03674475848674774,-0.008446186780929565
1714065745699871000,7.00687109375,-0.012426376342773438,-0.03360213339328766,0.008384838700294495
1714065745709750500,7.01675048828125,-0.019278526306152344,-0.021095067262649536,0.03423292934894562
1714065745719631000,7.026631103515625,-0.030729293823242188,-0.03233841061592102,0.05506104230880737
1714065745729511000,7.036510986328125,-0.030218124389648438,-0.024558275938034058,0.06848211586475372
1714065745739389700,7.0463896484375,-0.03442096710205078,-0.02397295832633972,0.06272400915622711
1714065745749269500,7.05626953125,-0.050327301025390625,-0.03045998513698578,0.05953523516654968
1714065745759149800,7.06614990234375,-0.03536224365234375,-0.03436805307865143,0.03991752862930298
1714065745769029600,7.076029541015625,-0.034770965576171875,-0.02891087532043457,0.02521871030330658
1714065745778908400,7.085908447265625,-0.02477264404296875,-0.028255611658096313,0.006053715944290161
1714065745788788200,7.095788330078125,-0.019689559936523438,-0.029281914234161377,-0.012675419449806213
1714065745798668800,7.105668701171875,0.8866186141967773,-0.18081779778003693,0.08141948282718658
1714065745808548400,7.11554833984375,1.4220914840698242,-0.3383171260356903,0.273293673992157
1714065745818427100,7.12542724609375,1.6921310424804688,-0.08459451794624329,-0.033746808767318726
1714065745828307000,7.135306884765625,0.7174358367919922,-0.1876996010541916,0.056194424629211426
1714065745838187500,7.1451875,-0.7327613830566406,0.016610093414783478,0.2674490809440613
1714065745848067000,7.155067138671875,-1.3138628005981445,0.1649387776851654,0.08288666605949402
1714065745857946000,7.164946044921875,-2.3466796875,0.2046770453453064,-0.20730088651180267
