time,seconds_elapsed,z,y,x
1714065775523548400,0.15254833984375,-0.038979530334472656,-0.006001830101013184,0.006341367959976196
1714065775533625000,0.162625,-0.04247760772705078,0.005276530981063843,0.005842775106430054
1714065775543701800,0.17270166015625,0.015439033508300781,0.038144975900650024,0.03773343563079834
1714065775553778400,0.1827783203125,-0.009814262390136719,0.06389933824539185,0.051706090569496155
1714065775563855000,0.192855224609375,-0.15471553802490234,0.06076937913894653,-0.03299438953399658
1714065775573932000,0.20293212890625,0.02060222625732422,0.003310650587081909,-0.047149211168289185
1714065775584008700,0.2130087890625,-0.00307464599609375,-0.012362539768218994,-0.03005865216255188
1714065775594085400,0.22308544921875,-0.07397079467773438,-0.006415456533432007,-0.02337026596069336
1714065775604162300,0.233162353515625,0.004719734191894531,0.008154243230819702,0.031682342290878296
1714065775614239000,0.243239013671875,-0.07858467102050781,0.011081278324127197,0.002642393112182617
1714065775624315600,0.253315673828125,0.21220111846923828,0.04619365930557251,0.07941365242004395
1714065775634392600,0.263392578125,0.015003204345703125,0.0774918645620346,-0.024408578872680664
1714065775644469500,0.273469482421875,-0.5435981750488281,0.267932265996933,-0.038667231798172
1714065775654546200,0.283546142578125,0.668583869934082,-0.16788023710250854,-0.06992858648300171
1714065775664623000,0.293623046875,0.18753528594970703,-0.0447116494178772,0.12045526504516602
1714065775674700000,0.303699951171875,-0.42884254455566406,-0.10408228635787964,0.015210598707199097
1714065775684776700,0.313776611328125,0.31110477447509766,-0.05762419104576111,-0.054072290658950806
1714065775694853600,0.323853515625,-0.039134979248046875,0.08202581107616425,-0.026377111673355103
1714065775704930600,0.3339306640625,-0.2236928939819336,0.2039688527584076,0.03234872221946716
1714065775715007500,0.344007568359375,-0.007864952087402344,0.03597018122673035,-0.014476150274276733
1714065775725084400,0.35408447265625,0.15843582153320312,-0.0640878975391388,0.020854204893112183
1714065775735118800,0.364118896484375,-0.10115432739257812,-0.08459010720252991,0.024931371212005615
1714065775744998400,0.373998291015625,0.04332542419433594,-0.10080412030220032,-0.0010374486446380615
1714065775754878700,0.383878662109375,0.039562225341796875,0.048069149255752563,0.003823906183242798
1714065775764758300,0.39375830078125,-0.15630149841308594,0.13067996501922607,0.0015897154808044434
1714065775774637000,0.403636962890625,0.03878211975097656,0.031904518604278564,-0.009842753410339355
1714065775784516600,0.4135166015625,0.00048828125,-0.0009312927722930908,-0.013973712921142578
1714065775794397200,0.423397216796875,0.023728370666503906,-0.037793755531311035,0.02161586284637451
1714065775804276700,0.43327685546875,0.030025482177734375,-0.053405582904815674,0.009810268878936768
1714065775814155500,0.443155517578125,0.019880294799804688,0.05729973316192627,0.04232719540596008
1714065775824035000,0.45303515625,-0.038872718811035156,0.08411072194576263,-0.00519755482673645
1714065775833915400,0.462915283203125,0.039093017578125,0.06120440363883972,-0.01638808846473694
1714065775843795000,0.472794921875,0.014790534973144531,0.02528628706932068,-0.0064296722412109375
1714065775853673700,0.482673828125,0.05645179748535156,-0.03107735514640808,0.017281055450439453
1714065775863553500,0.492553466796875,0.06675529479980469,-0.02349114418029785,0.0055061280727386475
1714065775873433900,0.502433837890625,0.013760566711425781,0.021532028913497925,0.005696654319763184
1714065775883313400,0.5123134765625,0.027482986450195312,0.037576824426651,-0.0059236884117126465
1714065775893192200,0.522192138671875,0.0058193206787109375,0.03478890657424927,-0.007916897535324097
1714065775903071700,0.53207177734375,0.010396957397460938,0.0064487457275390625,0.011315882205963135
1714065775912952300,0.541952392578125,0.019550323486328125,-0.042700737714767456,0.0019100010395050049
1714065775922832000,0.551831787109375,0.014456748962402344,-0.030020326375961304,0.02797037363052368
1714065775932710400,0.56171044921875,-0.006934165954589844,-0.005896568298339844,-0.00053444504737854
1714065775942590200,0.571590087890625,-0.011471748352050781,0.015504986047744751,-0.00031492114067077637
1714065775952470500,0.581470458984375,-0.022954940795898438,0.029679179191589355,-0.0024423301219940186
1714065775962350000,0.59135009765625,-0.027179718017578125,-0.0010055899620056152,0.0025086402893066406
1714065775972228900,0.601228759765625,0.006226539611816406,-0.019596487283706665,0.030845969915390015
1714065775982108400,0.6111083984375,-0.000926971435546875,-0.019170522689819336,0.016497433185577393
1714065775991989000,0.620989013671875,-0.0032491683959960938,0.007091253995895386,0.014165520668029785
1714065776001868500,0.63086865234375,0.015625,0.03769415616989136,0.0047147274017333984
1714065776011747000,0.6407470703125,-0.008149147033691406,0.051539987325668335,0.00719103217124939
1714065776021627000,0.650626953125,0.006121635437011719,0.02505546808242798,0.007274061441421509
1714065776031507200,0.660507080078125,0.03661632537841797,0.015386819839477539,0.019240349531173706
1714065776041386800,0.67038671875,0.043064117431640625,0.00812491774559021,0.014412790536880493
1714065776051265500,0.680265625,0.03529071807861328,0.02923363447189331,0.0002568364143371582
1714065776061145300,0.690145263671875,0.0347137451171875,0.03127530217170715,0.007524579763412476
1714065776071025700,0.700025634765625,0.024736404418945312,0.038109779357910156,0.005372822284698486
1714065776080905200,0.7099052734375,0.031403541564941406,0.016580015420913696,0.012673735618591309
1714065776090784000,0.719783935546875,0.040312767028808594,0.00941583514213562,0.01749873161315918
1714065776100663600,0.72966357421875,0.023171424865722656,-0.009518325328826904,0.005763977766036987
1714065776110544000,0.7395439453125,0.01573657989501953,0.002586066722869873,0.013058453798294067
1714065776120423700,0.749423583984375,0.0131378173828125,0.014607161283493042,0.015522897243499756
1714065776130302200,0.75930224609375,0.005871772766113281,-0.0018225014209747314,-0.001005709171295166
1714065776140182000,0.76918212890625,-0.00127410888671875,-0.013391464948654175,0.013467997312545776
1714065776150062300,0.779062255859375,-0.00359344482421875,-0.0129966139793396,0.008866876363754272
1714065776159942000,0.78894189453125,-0.010584831237792969,-0.0031884610652923584,0.018345415592193604
1714065776169820700,0.798820556640625,-0.005688667297363281,0.006456255912780762,0.01824912428855896
1714065776179700200,0.8087001953125,-0.007933616638183594,0.006520301103591919,0.008859872817993164
1714065776189580800,0.818580810546875,-0.007786750793457031,0.01611846685409546,0.001862943172454834
1714065776199460400,0.82846044921875,-0.009996414184570312,0.0067262351512908936,0.01616653800010681
1714065776209339100,0.838339111328125,0.018431663513183594,0.009143054485321045,0.018460780382156372
1714065776219218700,0.84821875,0.008721351623535156,0.006811261177062988,0.009064197540283203
1714065776229099000,0.85809912109375,0.02271270751953125,0.025706082582473755,0.025602012872695923
1714065776238978600,0.867978515625,0.031762123107910156,0.039577603340148926,0.011259615421295166
1714065776248857300,0.877857421875,0.017126083374023438,0.03921118378639221,0.009045690298080444
1714065776258737200,0.887737060546875,0.03333473205566406,0.027079910039901733,0.011458605527877808
1714065776268617500,0.897617431640625,0.03279685974121094,0.019859284162521362,0.016304045915603638
1714065776278497000,0.9074970703125,0.04874134063720703,0.007932096719741821,0.013887673616409302
1714065776288375800,0.917375732421875,0.03852367401123047,0.010325789451599121,0.0068069398403167725
1714065776298255400,0.92725537109375,0.026121139526367188,0.010328531265258789,0.009257256984710693
1714065776308135700,0.9371357421875,0.02334308624267578,0.00562286376953125,-0.0048126280307769775
1714065776318015500,0.947015380859375,0.013552665710449219,0.0058193206787109375,0.011960357427597046
1714065776327894000,0.95689404296875,0.008632659912109375,-0.0011654198169708252,0.009734869003295898
1714065776337773800,0.96677392578125,-0.0009174346923828125,-0.012742102146148682,0.009782224893569946
1714065776347654100,0.976654052734375,-0.0008907318115234375,-0.00293809175491333,0.0074746012687683105
1714065776357533700,0.98653369140625,-0.0032186508178710938,0.004348337650299072,0.012268006801605225
1714065776367412500,0.99641259765625,-0.005507469177246094,0.004447579383850098,0.016985327005386353
1714065776377292000,1.0062919921875,-0.010112762451171875,0.013965129852294922,0.01455765962600708
1714065776387172600,1.016172607421875,-0.0028705596923828125,0.0044904351234436035,0.02158719301223755
1714065776397052200,1.02605224609375,-0.0028085708618164062,-0.004826337099075317,0.009784460067749023
1714065776406931000,1.035930908203125,-0.002750396728515625,0.009554117918014526,0.014539361000061035
1714065776416810500,1.045810546875,0.01378631591796875,0.023691803216934204,0.01921883225440979
1714065776426691000,1.055691162109375,0.020633697509765625,0.02594447135925293,0.009691298007965088
1714065776436570600,1.065570556640625,0.02030467987060547,0.02815958857536316,0.007385164499282837
1714065776446449400,1.075449462890625,0.038817405700683594,0.025629371404647827,0.007590115070343018
1714065776456329000,1.085328857421875,0.033477783203125,0.020787209272384644,0.005319058895111084
1714065776466209300,1.095209228515625,0.03293132781982422,0.0253240168094635,0.003085881471633911
1714065776476088800,1.1050888671875,0.03474712371826172,0.03449365496635437,0.015015095472335815
1714065776485967600,1.114967529296875,0.03653717041015625,0.01773276925086975,0.005557656288146973
1714065776495847400,1.124847412109375,0.031235694885253906,0.024793237447738647,0.008028864860534668
1714065776505727700,1.134727783203125,0.030730247497558594,0.008194118738174438,0.00810474157333374
1714065776515607300,1.144607177734375,0.03729438781738281,0.00823250412940979,0.01065206527709961
1714065776525486000,1.154486083984375,0.017852783203125,0.01768702268600464,0.008448511362075806
1714065776535365600,1.16436572265625,0.017566680908203125,0.0034419894218444824,0.008517414331436157
1714065776545246000,1.174245849609375,0.0008087158203125,-0.008211374282836914,0.008703738451004028
1714065776555125800,1.184125732421875,-0.008603096008300781,-0.017197787761688232,0.01359531283378601
1714065776565004300,1.19400439453125,-0.0060882568359375,0.002215862274169922,0.01840534806251526
1714065776574884000,1.203884033203125,-0.010679244995117188,-0.011652737855911255,0.025370895862579346
1714065776584764400,1.213764404296875,-0.012841224670410156,0.005314350128173828,0.022803544998168945
1714065776594644000,1.22364404296875,-0.017320632934570312,-0.006370246410369873,0.029814332723617554
1714065776604522800,1.233522705078125,-0.0076007843017578125,0.01521715521812439,0.0154019296169281
1714065776614402300,1.24340234375,0.006663322448730469,0.01984688639640808,0.024771690368652344
1714065776624283000,1.253282958984375,0.004208564758300781,0.019691050052642822,0.015151768922805786
1714065776634162400,1.263162353515625,0.018280982971191406,0.019656330347061157,0.026998400688171387
1714065776644041200,1.273041259765625,0.02976226806640625,0.03362882137298584,0.008043050765991211
1714065776653920800,1.282920654296875,0.02927398681640625,0.037833184003829956,0.022243887186050415
1714065776663801000,1.292801025390625,0.03586006164550781,0.020901411771774292,0.010308116674423218
1714065776673681000,1.302680908203125,0.02350139617919922,0.027790606021881104,0.015054464340209961
1714065776683559400,1.312559326171875,0.04195404052734375,0.029853463172912598,0.007954448461532593
1714065776693439200,1.322439208984375,0.03185272216796875,0.02717667818069458,0.010504394769668579
1714065776703319600,1.332319580078125,0.03604412078857422,0.029252946376800537,-0.010530084371566772
1714065776713199000,1.34219921875,0.0307464599609375,0.014818370342254639,0.011039167642593384
1714065776723078000,1.352077880859375,0.006707191467285156,0.005451381206512451,0.0087069571018219
1714065776732957400,1.36195751953125,0.0018987655639648438,-0.010943830013275146,0.013480037450790405
1714065776742838000,1.371838134765625,0.01836109161376953,-0.0010510385036468506,0.01111099123954773
1714065776752717600,1.381717529296875,-0.010180473327636719,-0.007802516222000122,0.011135607957839966
1714065776762596400,1.391596435546875,-0.01706218719482422,0.0019192993640899658,0.015868186950683594
1714065776772476000,1.401475830078125,-0.00970458984375,-0.009708642959594727,0.022876083850860596
1714065776782356500,1.4113564453125,-0.01659393310546875,0.004756540060043335,0.017992407083511353
1714065776792236000,1.421236083984375,-0.02101421356201172,-0.00691869854927063,0.024964898824691772
1714065776802114800,1.43111474609375,-0.0159454345703125,0.0004373490810394287,0.017692148685455322
1714065776811994400,1.440994384765625,-0.00860595703125,0.014733433723449707,0.022311627864837646
1714065776821874700,1.450874755859375,0.0033245086669921875,0.014784634113311768,0.0056663453578948975
1714065776831754200,1.460754150390625,-0.0014257431030273438,0.01954016089439392,0.012844234704971313
1714065776841633000,1.470633056640625,0.005672454833984375,0.031160444021224976,0.019902527332305908
1714065776851512800,1.480512939453125,0.022068023681640625,0.02375352382659912,0.017426371574401855
1714065776861393200,1.49039306640625,0.02406597137451172,0.03294941782951355,0.012637317180633545
1714065776871272700,1.500272705078125,0.026030540466308594,0.025515854358673096,0.014986902475357056
1714065776881151500,1.5101513671875,0.032670021057128906,0.029974013566970825,0.01494687795639038
1714065776891031000,1.520031005859375,0.02978229522705078,0.027295291423797607,0.010199159383773804
1714065776900911600,1.52991162109375,0.03636360168457031,0.013008862733840942,0.005530625581741333
1714065776910791200,1.539791259765625,0.03341197967529297,0.010609745979309082,0.010241866111755371
1714065776920670000,1.549669921875,0.011677742004394531,0.008253753185272217,0.010280966758728027
1714065776930549500,1.559549560546875,0.013848304748535156,0.005937069654464722,0.007965236902236938
1714065776940429800,1.569429931640625,-0.007555961608886719,0.003658980131149292,0.015223562717437744
1714065776950309400,1.579309326171875,-0.00035572052001953125,-0.01270630955696106,0.012825429439544678
1714065776960188200,1.589188232421875,-0.00269317626953125,-0.0005485117435455322,0.01752990484237671
1714065776970068000,1.59906787109375,-0.0308837890625,-0.0025998950004577637,0.0127391517162323
1714065776979948300,1.6089482421875,-0.016229629516601562,0.0023269057273864746,0.01520952582359314
1714065776989827800,1.618827880859375,-0.01594829559326172,0.007171571254730225,0.015165865421295166
1714065776999706600,1.62870654296875,-0.01802349090576172,-0.002189725637435913,0.022304028272628784
1714065777009586200,1.638586181640625,-0.017708778381347656,0.023917973041534424,0.01990652084350586
1714065777019466800,1.648466796875,-0.0056285858154296875,0.018985986709594727,0.022257328033447266
1714065777029346300,1.65834619140625,0.0038938522338867188,0.025907158851623535,0.0244503915309906
1714065777039225000,1.66822509765625,0.0014867782592773438,0.028004586696624756,0.014835894107818604
1714065777049104600,1.678104736328125,0.015604019165039062,0.03253984451293945,0.017271190881729126
1714065777058985000,1.68798486328125,0.020067214965820312,0.025228559970855713,0.024255752563476562
1714065777068864800,1.69786474609375,0.02210235595703125,0.03216433525085449,0.007581889629364014
1714065777078743300,1.707743408203125,0.038224220275878906,0.029449135065078735,0.005311131477355957
1714065777088623000,1.717623046875,0.039956092834472656,0.029130250215530396,0.014971643686294556
1714065777098503400,1.72750341796875,0.025177001953125,0.019403040409088135,0.02199453115463257
1714065777108383000,1.737383056640625,0.031833648681640625,0.0051295459270477295,-0.001585543155670166
1714065777118261800,1.74726171875,0.02425861358642578,0.0029835104942321777,0.015248745679855347
1714065777128141300,1.757141357421875,-0.004382133483886719,0.007814139127731323,0.0176810622215271
1714065777138022000,1.76702197265625,0.0027675628662109375,0.0031506121158599854,0.024777501821517944
1714065777147901400,1.7769013671875,0.0027322769165039062,-0.0014351904392242432,0.015157639980316162
1714065777157780200,1.7867802734375,-0.011426925659179688,-0.008298784494400024,0.01511487364768982
1714065777167659800,1.79665966796875,-0.001804351806640625,-0.0008041858673095703,0.010364413261413574
1714065777177540000,1.8065400390625,-0.011179924011230469,-0.0053240954875946045,0.012755751609802246
1714065777187420000,1.816419921875,-0.010979652404785156,-0.009768635034561157,0.00580906867980957
1714065777197298400,1.82629833984375,-0.01784801483154297,0.00940278172492981,0.020047277212142944
1714065777207178200,1.83617822265625,-0.015181541442871094,0.007185578346252441,0.015214622020721436
1714065777217058600,1.84605859375,-0.007848739624023438,0.01913049817085266,0.017643719911575317
1714065777226938000,1.855938232421875,-0.0029916763305664062,0.016751110553741455,0.010615527629852295
1714065777236817000,1.86581689453125,0.008840560913085938,0.026063740253448486,0.017711013555526733
1714065777246696400,1.875696533203125,0.020478248596191406,0.016387641429901123,0.013035863637924194
1714065777256577000,1.885576904296875,0.022502899169921875,0.025706380605697632,0.008320063352584839
1714065777266456600,1.89545654296875,0.026846885681152344,0.03486981987953186,0.008391261100769043
1714065777276335400,1.90533544921875,0.038181304931640625,0.04152631759643555,0.0061070919036865234
1714065777286215000,1.91521484375,0.02343463897705078,0.01040157675743103,0.006337642669677734
1714065777296095500,1.925095458984375,0.03482818603515625,0.029236912727355957,0.01362311840057373
1714065777305975000,1.93497509765625,0.031905174255371094,0.014802724123001099,0.01360216736793518
1714065777315853800,1.944853759765625,0.024326324462890625,0.010141372680664062,0.01358535885810852
1714065777325733400,1.9547333984375,0.012165069580078125,-0.008567452430725098,0.008860468864440918
1714065777335613700,1.96461376953125,0.0049114227294921875,-0.010603666305541992,0.01363113522529602
1714065777345493500,1.974493408203125,-0.006931304931640625,0.003751516342163086,0.016090571880340576
1714065777355372000,1.9843720703125,-0.006804466247558594,-0.01732364296913147,0.018386483192443848
1714065777365251800,1.994251953125,-0.013739585876464844,-0.00038042664527893066,0.01370018720626831
1714065777375132200,2.004132080078125,-0.027624130249023438,0.002155214548110962,0.02309858798980713
1714065777385011700,2.01401171875,-0.02479839324951172,-0.004771322011947632,0.011156350374221802
1714065777394890500,2.023890380859375,-0.022020339965820312,0.004900097846984863,0.02765965461730957
1714065777404770000,2.03377001953125,-0.00045108795166015625,0.00028514862060546875,0.020464599132537842
1714065777414650600,2.043650634765625,-0.007495880126953125,0.023997485637664795,0.013270825147628784
1714065777424530200,2.0535302734375,0.0020570755004882812,0.014355868101119995,0.015613764524459839
1714065777434409000,2.063408935546875,0.020868301391601562,0.02135428786277771,0.024980157613754272
1714065777444288500,2.07328857421875,0.015822410583496094,0.03059026598930359,0.005940139293670654
1714065777454169000,2.083169189453125,0.020279884338378906,0.03025871515274048,0.015464037656784058
1714065777464048600,2.093048583984375,0.03643226623535156,0.02522110939025879,0.013061970472335815
1714065777473927400,2.102927490234375,0.026419639587402344,0.032038480043411255,0.010699987411499023
1714065777483807000,2.112806884765625,0.03305244445800781,0.024617046117782593,0.006023198366165161
1714065777493687300,2.122687255859375,0.04193115234375,0.02202773094177246,0.0037785768508911133
1714065777503566800,2.13256689453125,0.015346527099609375,0.019481569528579712,0.006279736757278442
1714065777513445600,2.142445556640625,0.01981067657470703,-0.004209965467453003,0.020510196685791016
1714065777523325400,2.152325439453125,0.007719993591308594,-0.003964632749557495,0.013315707445144653
1714065777533205800,2.162205810546875,-0.015935897827148438,0.003339231014251709,0.006359875202178955
1714065777543085300,2.172085205078125,0.003177642822265625,-0.01537168025970459,0.020703911781311035
1714065777552964000,2.181964111328125,-0.008635520935058594,-0.0008151233196258545,0.020568788051605225
1714065777562843600,2.19184375,-0.02731037139892578,0.0018464922904968262,0.01572754979133606
1714065777572724200,2.20172412109375,-0.015069961547851562,-0.002717524766921997,0.0110856294631958
1714065777582603800,2.211603759765625,-0.012450218200683594,-0.000024199485778808594,0.01581922173500061
1714065777592482600,2.221482666015625,-0.026353836059570312,0.00721392035484314,0.020592540502548218
1714065777602362000,2.231362060546875,0.004700660705566406,0.007268816232681274,0.008688271045684814
1714065777612242400,2.241242431640625,-0.004782676696777344,0.028510570526123047,0.015816032886505127
1714065777622122200,2.251122314453125,-0.0023317337036132812,0.02597498893737793,0.020589381456375122
1714065777632001000,2.2610009765625,0.009490966796875,0.025717198848724365,0.011157959699630737
1714065777641880600,2.270880615234375,0.025827407836914062,0.037234723567962646,0.008946359157562256
1714065777651761000,2.280760986328125,0.02305316925048828,0.03443509340286255,0.0019446313381195068
1714065777661640400,2.290640380859375,0.017972946166992188,0.03403317928314209,0.009188532829284668
1714065777671519200,2.300519287109375,0.03180885314941406,0.03599533438682556,0.021016359329223633
1714065777681399000,2.31039892578125,0.024231910705566406,0.021564066410064697,0.013813436031341553
1714065777691279400,2.320279296875,0.030900955200195312,0.021379858255386353,0.009084820747375488
1714065777701159000,2.330158935546875,0.02333545684814453,0.018844544887542725,0.01620599627494812
1714065777711037700,2.34003759765625,0.01589488983154297,0.004580467939376831,0.01614588499069214
1714065777720917200,2.349917236328125,0.0038690567016601562,-0.011800050735473633,0.013732552528381348
1714065777730797800,2.3597978515625,-0.003246307373046875,-0.0020113885402679443,0.013713687658309937
1714065777740677400,2.369677490234375,-0.007884979248046875,-0.008746564388275146,0.008986741304397583
1714065777750556200,2.37955615234375,-0.017156600952148438,-0.006071418523788452,0.00916561484336853
1714065777760435700,2.389435791015625,-0.02156829833984375,-0.0034408271312713623,0.013931214809417725
1714065777770316000,2.39931591796875,-0.02119731903076172,-0.005562484264373779,0.02097165584564209
1714065777780195600,2.409195556640625,-0.013770103454589844,-0.0005861818790435791,0.023186296224594116
1714065777790074400,2.419074462890625,-0.011175155639648438,0.0113697350025177,0.02065563201904297
1714065777799954200,2.4289541015625,-0.006268501281738281,0.009001195430755615,0.020521342754364014
1714065777809834500,2.43883447265625,0.0009136199951171875,0.016207635402679443,0.020389288663864136
1714065777819714000,2.448714111328125,0.007970809936523438,0.02317526936531067,0.022613584995269775
1714065777829592800,2.4585927734375,0.007849693298339844,0.03238093852996826,0.003613084554672241
1714065777839472400,2.468472412109375,0.02421092987060547,0.020245462656021118,0.01553383469581604
1714065777849353000,2.47835302734375,0.030879974365234375,0.03420838713645935,0.01313069462776184
1714065777859232500,2.488232421875,0.016252517700195312,0.026750832796096802,0.008413434028625488
1714065777869111300,2.498111328125,0.02776336669921875,0.03825116157531738,-0.0009335875511169434
1714065777878990800,2.507990966796875,0.0367279052734375,0.016601085662841797,0.018125563859939575
1714065777888871200,2.51787109375,0.022003173828125,0.016499608755111694,0.008616715669631958
1714065777898750700,2.527750732421875,0.024001121520996094,0.011691451072692871,0.01574575901031494
1714065777908629500,2.53762939453125,0.0024242401123046875,0.006963402032852173,0.001568138599395752
1714065777918509300,2.54750927734375,-0.0023126602172851562,-0.004748404026031494,0.013522982597351074
1714065777928389600,2.5573896484375,-0.014039039611816406,-0.018737882375717163,0.013507634401321411
1714065777938269200,2.567269287109375,-0.01850128173828125,-0.020604580640792847,0.027617722749710083
1714065777948148000,2.57714794921875,-0.025243759155273438,-0.00831499695777893,0.015596479177474976
1714065777958027800,2.58702783203125,-0.031874656677246094,-0.005647003650665283,0.015546530485153198
1714065777967908000,2.596908203125,-0.01720714569091797,0.008747518062591553,0.013143181800842285
1714065777977787600,2.60678759765625,-0.021617889404296875,0.00877690315246582,0.022550910711288452
1714065777987666400,2.61666650390625,-0.0024089813232421875,-0.0004923045635223389,0.020030856132507324
1714065777997546000,2.6265458984375,-0.009420394897460938,0.01852467656135559,0.008135974407196045
1714065778007426300,2.63642626953125,0.007229804992675781,0.02074533700942993,0.013037443161010742
1714065778017306000,2.64630615234375,0.0071201324462890625,0.02999153733253479,0.010675936937332153
1714065778027184600,2.6561845703125,0.011721611022949219,0.02496159076690674,0.0107041597366333
1714065778037064400,2.666064453125,0.03272533416748047,0.02001240849494934,0.013089925050735474
1714065778046944800,2.67594482421875,0.020420074462890625,0.029270857572555542,0.008373379707336426
1714065778056824300,2.68582421875,0.02715301513671875,0.026604026556015015,0.010798037052154541
1714065778066703000,2.695703125,0.03612804412841797,0.012210667133331299,0.013182252645492554
1714065778076583000,2.7055830078125,0.026121139526367188,0.0192449688911438,0.013172566890716553
1714065778086463200,2.715463134765625,0.025696754455566406,0.004974275827407837,0.015517324209213257
1714065778096342800,2.7253427734375,0.015863418579101562,0.01212608814239502,0.020180940628051758
1714065778106221600,2.7352216796875,0.010901451110839844,0.01209607720375061,0.012995809316635132
1714065778116101000,2.74510107421875,-0.0033941268920898438,0.0002987086772918701,0.005926698446273804
1714065778125981700,2.754981689453125,-0.017452239990234375,-0.0018852055072784424,0.010746359825134277
1714065778135861200,2.764861328125,-0.010087013244628906,0.0006756484508514404,0.008423089981079102
1714065778145740000,2.774739990234375,-0.028745651245117188,-0.003987491130828857,0.015555351972579956
1714065778155619600,2.78461962890625,-0.01884174346923828,0.007906436920166016,0.0178602933883667
1714065778165500000,2.7945,-0.023224830627441406,-0.008529454469680786,0.01306423544883728
1714065778175379700,2.804379638671875,-0.008700370788574219,-0.0011494755744934082,0.022473305463790894
1714065778185258200,2.81425830078125,-0.013256072998046875,0.008458495140075684,0.015131324529647827
1714065778195138000,2.824137939453125,0.0034618377685546875,0.022733479738235474,0.012857437133789062
1714065778205018400,2.834018310546875,0.010478019714355469,0.015467196702957153,0.022269994020462036
1714065778214898000,2.84389794921875,0.007961273193359375,0.02715247869491577,0.007987439632415771
1714065778224776700,2.853776611328125,0.019614219665527344,0.034056395292282104,0.012772709131240845
1714065778234656300,2.86365625,0.01694488525390625,0.014830440282821655,0.015124112367630005
1714065778244536800,2.873536865234375,0.02608966827392578,0.028883695602416992,0.019790470600128174
1714065778254416400,2.88341650390625,0.03272819519042969,0.021514922380447388,0.012608051300048828
1714065778264295200,2.893295166015625,0.029840469360351562,0.0213315486907959,0.007899552583694458
1714065778274174700,2.9031748046875,0.03406238555908203,0.02585965394973755,0.01739475131034851
1714065778284055000,2.913054931640625,0.017030715942382812,0.011597514152526855,0.003189772367477417
1714065778293934800,2.922934814453125,0.014408111572265625,0.011698216199874878,0.010409235954284668
1714065778303813400,2.9328134765625,0.01418304443359375,-0.002327948808670044,0.015154242515563965
1714065778313693200,2.942693115234375,-0.011938095092773438,0.0002402961254119873,0.024528533220291138
1714065778323573500,2.952573486328125,-0.018787384033203125,-0.011240631341934204,0.021975606679916382
1714065778333453000,2.962453125,-0.023171424865722656,-0.013235390186309814,0.012406408786773682
1714065778343331800,2.972331787109375,-0.02277374267578125,0.003639817237854004,0.017118096351623535
1714065778353211600,2.982211669921875,-0.015320777893066406,-0.003308206796646118,0.014688670635223389
1714065778363092000,2.992092041015625,-0.02211284637451172,0.004103511571884155,0.02171647548675537
1714065778372971500,3.001971435546875,-0.014670372009277344,0.0018561482429504395,0.014501988887786865
1714065778382850300,3.011850341796875,-0.0026426315307617188,0.016125619411468506,0.012116044759750366
1714065778392729900,3.021729736328125,-0.00258636474609375,0.018501877784729004,0.012009233236312866
1714065778402610200,3.031610107421875,0.006884574890136719,0.025428175926208496,0.00966876745223999
1714065778412490000,3.041489990234375,0.016198158264160156,0.022825419902801514,0.005009263753890991
1714065778422368500,3.051368408203125,0.008875846862792969,0.03909957408905029,0.016906797885894775
1714065778432248300,3.061248291015625,0.0275726318359375,0.01978960633277893,0.009772449731826782
1714065778442128600,3.071128662109375,0.04125022888183594,0.0314059853553772,0.0074654221534729
1714065778452008200,3.08100830078125,0.028802871704101562,0.023995190858840942,0.007551074028015137
1714065778461887000,3.090886962890625,0.025979042053222656,0.019062161445617676,0.014697909355163574
1714065778471766800,3.100766845703125,0.03497791290283203,0.007148712873458862,0.012427538633346558
1714065778481647000,3.110647216796875,0.020280838012695312,0.018975883722305298,0.019493162631988525
1714065778491526700,3.120526611328125,0.005827903747558594,-0.002352893352508545,0.007607400417327881
1714065778501405400,3.130405517578125,0.001033782958984375,-0.006846815347671509,0.017107516527175903
1714065778511285000,3.140284912109375,-0.015450477600097656,-0.008911579847335815,0.014678329229354858
1714065778521165300,3.150165283203125,-0.02224445343017578,0.0031832456588745117,0.014643818140029907
1714065778531045000,3.160045166015625,-0.017154693603515625,0.00330546498298645,0.01696401834487915
1714065778540923600,3.169923583984375,-0.026273727416992188,0.0034256279468536377,0.009828746318817139
1714065778550803500,3.179803466796875,-0.016404151916503906,0.0013083219528198242,0.02635440230369568
1714065778560683800,3.189683837890625,-0.00905609130859375,0.006170213222503662,0.02612525224685669
1714065778570563300,3.199563232421875,-0.020658493041992188,0.020486563444137573,0.016601860523223877
1714065778580442000,3.209442138671875,-0.022657394409179688,0.020320355892181396,0.014181017875671387
1714065778590321700,3.21932177734375,0.003627777099609375,0.017802715301513672,0.01886311173439026
1714065778600202200,3.2292021484375,0.017701148986816406,0.02474382519721985,0.018640071153640747
1714065778610081800,3.239081787109375,0.026833534240722656,0.03156927227973938,0.013831079006195068
1714065778619960600,3.248960693359375,0.03345966339111328,0.028864175081253052,0.020873188972473145
1714065778629840100,3.258840087890625,0.018789291381835938,0.03326678276062012,0.0089644193649292
1714065778639720700,3.268720703125,0.03731822967529297,0.02818235754966736,0.006548374891281128
1714065778649600300,3.278600341796875,0.03435325622558594,0.032596319913864136,0.011357724666595459
1714065778659479000,3.28847900390625,0.012606620788574219,-0.007793039083480835,0.006788879632949829
1714065778669358600,3.298358642578125,0.012407302856445312,0.011348903179168701,0.009236276149749756
1714065778679239000,3.308239013671875,-0.07726860046386719,-0.0025619566440582275,0.0741523802280426
1714065778689118500,3.318118408203125,0.18299484252929688,-0.30898958444595337,0.48594993352890015
1714065778698997200,3.327997314453125,0.12325286865234375,0.4859922528266907,1.7148085832595825
1714065778708877000,3.337876953125,-0.9899349212646484,-0.0362265408039093,1.6004375219345093
1714065778718757400,3.34775732421875,1.006422996520996,-0.18360164761543274,2.2023048400878906
1714065778728637000,3.357636962890625,0.18669891357421875,-0.024338752031326294,1.7224048376083374
1714065778738515700,3.367515625,-0.3650083541870117,0.09183421730995178,1.870408535003662
1714065778748395300,3.377395263671875,0.5834140777587891,-0.13207951188087463,2.6619575023651123
1714065778758275600,3.387275634765625,0.24706649780273438,-0.27291974425315857,3.188615560531616
1714065778768155400,3.3971552734375,-0.4700803756713867,-0.15566304326057434,3.0695912837982178
1714065778778034000,3.407033935546875,0.24469757080078125,0.0916864275932312,3.2113771438598633
1714065778787913700,3.416913818359375,-0.1906442642211914,0.5098521709442139,3.607030153274536
1714065778797794000,3.4267939453125,-0.18052291870117188,0.45827245712280273,3.1846935749053955
1714065778807673600,3.436673583984375,0.1972179412841797,0.29144424200057983,3.4469101428985596
1714065778817552400,3.446552490234375,-0.9824275970458984,0.07798102498054504,3.0603816509246826
1714065778827432000,3.456431884765625,0.5410594940185547,0.2615671455860138,3.3573427200317383
1714065778837312500,3.4663125,0.7876443862915039,-0.6565015316009521,3.287132978439331
1714065778847192000,3.476192138671875,0.41971588134765625,-0.4548468291759491,3.705965995788574
1714065778857070800,3.48607080078125,-0.5510158538818359,-0.06339092552661896,3.089304208755493
1714065778866950400,3.495950439453125,-1.186574935913086,0.9034056663513184,2.6791982650756836
1714065778876830700,3.505830810546875,0.7242860794067383,-0.4842385947704315,3.7028963565826416
1714065778886710500,3.51571044921875,2.206533432006836,0.18417537212371826,3.778716802597046
1714065778896589000,3.525589111328125,-4.063313007354736,0.8095751404762268,1.5871437788009644
1714065778906468900,3.53546875,0.3127899169921875,0.11215329170227051,3.4729630947113037
1714065778916349200,3.54534912109375,4.587383270263672,0.5176782608032227,4.4301371574401855
1714065778926228700,3.555228759765625,-0.16700363159179688,-0.3676519989967346,1.8285263776779175
1714065778936107500,3.565107421875,-0.23124217987060547,0.054294154047966,2.165510892868042
1714065778945987000,3.574987060546875,-1.7963857650756836,0.25321847200393677,1.8002678155899048
1714065778955867600,3.58486767578125,0.4767570495605469,-0.2828802466392517,3.8663806915283203
1714065778965747200,3.594747314453125,1.0383672714233398,-0.8034679889678955,2.7920095920562744
1714065778975626000,3.6046259765625,-0.12259960174560547,0.2742122411727905,2.7496178150177
1714065778985505500,3.614505615234375,0.09748363494873047,0.9166406393051147,3.4669649600982666
1714065778995385900,3.6243857421875,-1.3062524795532227,-0.08632445335388184,1.1302481889724731
1714065779005265400,3.634265380859375,0.180206298828125,-0.5355633497238159,1.6449697017669678
1714065779015144200,3.644144287109375,0.6209831237792969,-0.8054139614105225,2.533346652984619
1714065779025024000,3.65402392578125,-0.6801156997680664,-0.9447190761566162,2.500152587890625
1714065779034904300,3.663904296875,-0.11967849731445312,0.2389708161354065,2.4555563926696777
1714065779044783900,3.673783935546875,1.1048870086669922,0.316236674785614,3.537600517272949
1714065779054662700,3.68366259765625,-1.8140287399291992,1.3759105205535889,3.323046922683716
1714065779064542200,3.693542236328125,-1.7997102737426758,1.1852362155914307,1.3258684873580933
1714065779074422800,3.7034228515625,-1.3259658813476562,-1.1815191507339478,-2.43652081489563
1714065779084302300,3.71330224609375,7.812435150146484,-0.48393523693084717,0.953859269618988
1714065779094181000,3.72318115234375,2.5358896255493164,-0.43473929166793823,2.9264256954193115
1714065779104060700,3.733060791015625,-5.5691704750061035,0.16392728686332703,0.9498732089996338
1714065779113941000,3.74294091796875,0.5204343795776367,1.6679067611694336,4.177010536193848
1714065779123820500,3.752820556640625,-0.9349765777587891,-0.18764612078666687,2.6005077362060547
1714065779133699300,3.76269921875,-0.7365217208862305,-0.9822362661361694,0.01184128224849701
1714065779143579100,3.7725791015625,1.6503162384033203,-1.0907831192016602,2.101550817489624
1714065779153459500,3.78245947265625,2.3687305450439453,0.04416513442993164,3.2449870109558105
1714065779163339000,3.792339111328125,-1.2150259017944336,0.49356043338775635,1.3169633150100708
1714065779173217800,3.8022177734375,-1.8560295104980469,1.2974604368209839,-0.04011179506778717
1714065779183097300,3.812097412109375,-1.4366226196289062,0.002948194742202759,-0.6062860488891602
1714065779192978000,3.82197802734375,1.6602973937988281,-0.27007120847702026,1.047278642654419
1714065779202857500,3.831857421875,-4.893734455108643,0.5251827239990234,0.8649290800094604
1714065779212736300,3.841736328125,6.161811828613281,-0.6856658458709717,6.099234104156494
1714065779222615800,3.85161572265625,6.219321250915527,0.10076652467250824,3.2621874809265137
1714065779232496000,3.86149609375,-7.03896427154541,0.34093576669692993,-1.7376199960708618
1714065779242375700,3.871375732421875,-0.18787860870361328,-1.0643845796585083,-0.6922231912612915
1714065779252254500,3.88125439453125,1.729142189025879,-0.154981791973114,2.6615445613861084
1714065779262134300,3.89113427734375,-2.9706830978393555,-0.0008158832788467407,2.550414562225342
1714065779272014600,3.9010146484375,1.8183403015136719,0.7350186109542847,2.601414680480957
1714065779281894100,3.91089404296875,-1.186075210571289,0.10252070426940918,-0.5112256407737732
1714065779291773000,3.92077294921875,0.8978996276855469,-0.18648026883602142,-2.6732442378997803
1714065779301652500,3.930652587890625,3.465273857116699,-0.33280518651008606,2.655073642730713
1714065779311533000,3.940532958984375,0.2087106704711914,-0.03200139105319977,1.5746394395828247
1714065779321412600,3.95041259765625,-1.1600046157836914,1.4089727401733398,2.749173641204834
1714065779331291100,3.960291015625,-2.3963465690612793,-0.2790803909301758,-0.39859217405319214
1714065779341171000,3.9701708984375,-1.795517921447754,-0.6033934950828552,0.6112982034683228
1714065779351051300,3.98005126953125,3.089228630065918,-0.6032218933105469,2.4600486755371094
1714065779360930800,3.989930908203125,0.08145523071289062,0.2017015814781189,0.9071874022483826
1714065779370809600,3.9998095703125,-2.4473471641540527,0.15138283371925354,-0.816376805305481
1714065779380689400,4.009689453125,-0.0764303207397461,0.7897484302520752,-0.18945345282554626
1714065779390569700,4.01956982421875,-3.535088062286377,0.5178149938583374,1.1991220712661743
1714065779400449300,4.02944921875,6.343077659606934,-0.12647801637649536,3.5152907371520996
1714065779410328000,4.039328125,1.2827367782592773,-0.5682880878448486,-0.5075734853744507
1714065779420207600,4.04920751953125,-5.4632439613342285,-0.6647167205810547,-0.4524451196193695
1714065779430088000,4.059087890625,3.8896303176879883,-0.7163945436477661,1.8254480361938477
1714065779439967500,4.068967529296875,0.9773797988891602,-0.27371853590011597,2.4528613090515137
1714065779449846300,4.07884619140625,-1.8771905899047852,0.6139986515045166,0.4319216012954712
1714065779459726000,4.08872607421875,-0.3419513702392578,-0.04675135016441345,-1.3400362730026245
1714065779469606400,4.0986064453125,-0.7038478851318359,-0.07304263114929199,0.522384524345398
1714065779479486000,4.10848583984375,1.8631868362426758,-0.6887525320053101,-0.652661919593811
1714065779489364700,4.11836474609375,0.42855358123779297,0.6597505211830139,2.9318249225616455
1714065779499244300,4.128244384765625,-1.1513051986694336,-0.9497267007827759,-0.6359875798225403
1714065779509124900,4.138124755859375,-1.8720712661743164,-0.28182393312454224,0.4926292896270752
1714065779519004400,4.14800439453125,3.225442886352539,0.14535842835903168,2.618131637573242
1714065779528883200,4.15788330078125,-1.7355337142944336,0.7360828518867493,0.7235696315765381
1714065779538762800,4.1677626953125,-0.18602848052978516,-0.06311409175395966,-1.264345407485962
1714065779548643000,4.17764306640625,-0.7269124984741211,0.37758228182792664,0.2460983395576477
1714065779558523000,4.18752294921875,0.7292156219482422,-0.40477555990219116,1.58627450466156
1714065779568401400,4.1974013671875,1.9277544021606445,-1.5954022407531738,1.2768800258636475
1714065779578281200,4.20728125,0.7397928237915039,0.20756123960018158,0.4506194293498993
1714065779588161500,4.21716162109375,-3.775364875793457,0.15873168408870697,-0.4788837432861328
1714065779598041000,4.227041015625,1.8933582305908203,0.9248579740524292,2.2371907234191895
1714065779607919900,4.236919921875,-1.1634387969970703,1.0420026779174805,-0.05822865664958954
1714065779617799400,4.24679931640625,-0.5174026489257812,-0.7642248868942261,-1.8835519552230835
1714065779627680000,4.256679931640625,1.7408475875854492,-0.7057366967201233,1.1411066055297852
1714065779637559600,4.2665595703125,1.1511554718017578,0.43887436389923096,2.312901735305786
1714065779647438300,4.276438232421875,0.8401260375976562,-0.033844754099845886,-1.508216142654419
1714065779657318000,4.28631787109375,-3.2753443717956543,-0.9364232420921326,-1.5565322637557983
1714065779667198200,4.2961982421875,3.7059192657470703,-0.3596701920032501,3.0475943088531494
1714065779677077800,4.306077880859375,-2.207576274871826,1.073570728302002,1.9914053678512573
1714065779686956500,4.31595654296875,-3.4654698371887207,1.040713906288147,-1.1706241369247437
1714065779696836400,4.32583642578125,0.8686323165893555,0.30521804094314575,0.0225813090801239
1714065779706716700,4.335716552734375,3.7914724349975586,-1.047690987586975,1.8498557806015015
1714065779716596200,4.34559619140625,0.8486204147338867,-0.38696348667144775,0.3712635934352875
1714065779726475000,4.35547509765625,-5.633822441101074,-0.5579071044921875,-1.1136804819107056
1714065779736354600,4.3653544921875,7.973845481872559,-1.1752665042877197,2.69976806640625
1714065779746235100,4.375235107421875,-0.3869810104370117,1.3751089572906494,0.6765043139457703
1714065779756114700,4.38511474609375,-9.827025413513184,1.794223427772522,-1.6490594148635864
1714065779765993500,4.394993408203125,1.6335134506225586,1.4220753908157349,-0.900301992893219
1714065779775873000,4.404873046875,3.54915714263916,-1.531676173210144,2.3783466815948486
1714065779785753300,4.41475341796875,0.3819742202758789,-0.8236510753631592,1.57105553150177
1714065779795633000,4.4246328125,-1.9185075759887695,-0.5964206457138062,-2.5052733421325684
1714065779805511700,4.43451171875,2.5265026092529297,-0.3936843276023865,-0.3914893865585327
1714065779815391500,4.4443916015625,3.7948665618896484,0.357913613319397,1.8627080917358398
1714065779825271800,4.454271728515625,-5.690188407897949,1.041110873222351,-0.5141640901565552
1714065779835151400,4.4641513671875,0.1304340362548828,0.924058735370636,-0.2715427577495575
1714065779845030100,4.474030029296875,1.7783784866333008,-0.8437005877494812,0.8707816004753113
1714065779854909700,4.48390966796875,0.40081119537353516,-0.5442432165145874,0.9016146659851074
1714065779864790000,4.4937900390625,-4.566067218780518,-0.43481308221817017,-2.1951489448547363
1714065779874669800,4.503669921875,2.8326187133789062,-1.7971467971801758,2.8546512126922607
1714065779884548400,4.51354833984375,7.726795196533203,0.9176421165466309,1.4693132638931274
1714065779894428200,4.52342822265625,-6.012310981750488,0.08544237911701202,-1.0337282419204712
1714065779904308500,4.53330859375,-3.2273788452148438,1.9410295486450195,-1.7523884773254395
1714065779914188000,4.54318798828125,3.818413734436035,-0.3302750587463379,1.782428503036499
1714065779924066800,4.55306689453125,-1.3120708465576172,-0.8556097745895386,1.31535005569458
1714065779933946400,4.5629462890625,0.16473007202148438,-0.675007700920105,-2.2261335849761963
1714065779943827000,4.572826904296875,1.0509824752807617,-0.9119458198547363,-0.27615857124328613
1714065779953706500,4.58270654296875,0.25079822540283203,1.0226225852966309,1.8845326900482178
1714065779963585300,4.592585205078125,-5.294829845428467,1.0747532844543457,-0.30636727809906006
1714065779973464800,4.60246484375,0.00046634674072265625,-0.9457277655601501,0.5136784315109253
1714065779983345200,4.61234521484375,4.486697196960449,0.07367436587810516,1.8828883171081543
1714065779993225000,4.622224853515625,-1.7650156021118164,-1.3470267057418823,-1.9497655630111694
1714065780003103500,4.632103515625,-1.497725486755371,1.1184320449829102,0.44170981645584106
1714065780012983300,4.6419833984375,3.634458541870117,-0.5989159345626831,2.21868634223938
1714065780022863600,4.651863525390625,2.5706682205200195,0.266818106174469,-0.3893132209777832
1714065780032743200,4.6617431640625,-5.530434608459473,1.5684800148010254,-2.879093885421753
1714065780042622000,4.6716220703125,-3.823368549346924,0.3211320638656616,-0.4723454713821411
1714065780052501500,4.68150146484375,2.4599170684814453,-1.3233709335327148,2.1931588649749756
1714065780062382000,4.691382080078125,-0.9170818328857422,-0.8382365703582764,1.7038660049438477
1714065780072261600,4.70126171875,3.9435977935791016,-1.8226174116134644,-0.4662696123123169
1714065780082140400,4.711140380859375,-0.03325462341308594,-0.017681598663330078,-2.4115238189697266
1714065780092020000,4.72102001953125,-1.799489974975586,1.4394261837005615,-0.6159051656723022
1714065780101900300,4.730900390625,-0.49097537994384766,-0.06706658005714417,1.0944020748138428
1714065780111779800,4.74077978515625,1.1342668533325195,0.5568168759346008,2.1412060260772705
1714065780121658600,4.75065869140625,-1.2182836532592773,-1.0728521347045898,-1.3892362117767334
1714065780131538400,4.760538330078125,-3.194359302520752,-0.20713287591934204,0.31523314118385315
1714065780141418800,4.770418701171875,1.0458650588989258,-0.19838055968284607,-1.1138122081756592
1714065780151298300,4.78029833984375,7.395944595336914,-1.1796473264694214,2.356529951095581
1714065780161177000,4.790177001953125,0.9498300552368164,0.5385156869888306,-0.08593137562274933
1714065780171056600,4.800056640625,-9.288373947143555,2.411684989929199,-1.4565547704696655
1714065780180937200,4.809937255859375,1.023634910583496,0.038048744201660156,0.5790691375732422
1714065780190816800,4.819816650390625,0.3544902801513672,-1.918553113937378,1.1251481771469116
1714065780200695600,4.829695556640625,5.104799270629883,-1.6393346786499023,-1.0724818706512451
1714065780210575000,4.8395751953125,-1.4250965118408203,0.827998161315918,-1.7028311491012573
1714065780220455400,4.849455322265625,-2.2517080307006836,1.473046064376831,0.12207949161529541
1714065780230335000,4.8593349609375,1.9425888061523438,0.0515267550945282,2.071720600128174
1714065780240213800,4.8692138671875,0.11071300506591797,-1.0062731504440308,-0.40583109855651855
1714065780250093300,4.87909326171875,-2.6783370971679688,0.12814143300056458,-0.08668829500675201
1714065780259974000,4.888973876953125,-0.48591136932373047,0.02656710147857666,-0.6387790441513062
1714065780269853400,4.898853515625,2.9344778060913086,0.036515429615974426,1.5621471405029297
1714065780279732200,4.908732177734375,5.588174819946289,-0.20394808053970337,0.9559354782104492
1714065780289611800,4.91861181640625,-7.645063400268555,1.054921269416809,-1.7399036884307861
1714065780299492000,4.9284921875,0.8024101257324219,-0.4863731563091278,-1.0921671390533447
1714065780309372000,4.938371826171875,0.0025396347045898438,-1.172486424446106,1.3839079141616821
1714065780319250400,4.94825048828125,6.453383445739746,-2.9785876274108887,-1.4264321327209473
1714065780329130200,4.958130126953125,-3.238943099975586,1.446035385131836,-1.9917490482330322
1714065780339010600,4.968010498046875,-4.759166717529297,2.249189853668213,-0.8898262977600098
1714065780348890000,4.97789013671875,3.0051651000976562,-0.22948867082595825,2.162588119506836
1714065780358769000,4.987768798828125,-0.29749202728271484,-1.1608527898788452,-0.3600483238697052
1714065780368648400,4.9976484375,1.1673660278320312,-0.7881643772125244,0.4586968421936035
1714065780378529000,5.007529052734375,1.7421188354492188,0.16176560521125793,0.26335716247558594
1714065780388408600,5.01740869140625,0.5019330978393555,-0.6555701494216919,-0.6293187141418457
1714065780398287400,5.027287353515625,3.6701278686523438,0.056458979845047,0.18366125226020813
1714065780408167000,5.0371669921875,-6.434966087341309,1.606986165046692,-0.48669499158859253
1714065780418047200,5.047047119140625,1.5310020446777344,-0.8358354568481445,-0.5450431108474731
1714065780427926800,5.0569267578125,0.9055871963500977,-0.7499678134918213,0.753675103187561
1714065780437805600,5.0668056640625,-1.8390731811523438,1.1241035461425781,2.251945734024048
1714065780447685000,5.07668505859375,-3.3944106101989746,1.1692519187927246,-1.3083736896514893
1714065780457565700,5.086565673828125,1.496002197265625,-0.4555702209472656,-2.926971912384033
1714065780467445200,5.0964453125,3.3768672943115234,-0.8065130114555359,0.82262122631073
1714065780477324000,5.106323974609375,0.5931997299194336,-1.7458608150482178,-0.5192615985870361
1714065780487203600,5.11620361328125,-2.713869094848633,0.2938472330570221,0.4863854646682739
1714065780497084000,5.126083984375,1.707693099975586,1.4388954639434814,0.45444750785827637
1714065780506963500,5.13596337890625,-5.268166542053223,1.961861252784729,-2.847271203994751
1714065780516842200,5.14584228515625,-3.3355770111083984,-0.2557893991470337,-0.44593602418899536
1714065780526722000,5.15572216796875,10.84261417388916,-2.499774932861328,3.5413053035736084
1714065780536602400,5.165602294921875,1.1380510330200195,-0.3277530372142792,-2.1811559200286865
1714065780546482000,5.17548193359375,-5.627517223358154,-0.11549346148967743,1.3384469747543335
1714065780556360700,5.185360595703125,-0.2956075668334961,1.656496524810791,0.7984434366226196
1714065780566240300,5.195240234375,-1.8395500183105469,0.8742493391036987,-2.335172176361084
1714065780576120600,5.20512060546875,3.0041942596435547,-1.0738251209259033,-0.22634373605251312
1714065780586000400,5.21500048828125,5.532041549682617,-1.2428441047668457,0.26007193326950073
1714065780595879000,5.22487890625,-4.747494697570801,-0.850129246711731,-2.1797165870666504
1714065780605758700,5.2347587890625,-0.46546173095703125,0.7404952049255371,1.168289303779602
1714065780615639000,5.24463916015625,-1.0397014617919922,1.9312649965286255,0.02437615394592285
1714065780625518600,5.2545185546875,-9.609424591064453,0.07540568709373474,-0.7205358743667603
1714065780635397400,5.2643974609375,11.558372497558594,-1.6545977592468262,2.5435080528259277
1714065780645277000,5.27427685546875,4.877843856811523,-0.6327576637268066,-2.031989097595215
1714065780655157500,5.284157470703125,-7.764462471008301,-1.0898728370666504,-0.21939639747142792
1714065780665037000,5.294037109375,3.8631200790405273,-0.2476600706577301,0.7504161596298218
1714065780674915800,5.303915771484375,-1.8597240447998047,1.145532488822937,-0.2465287297964096
1714065780684795400,5.31379541015625,-3.5594687461853027,0.07503154873847961,-1.5928409099578857
1714065780694675700,5.32367578125,5.178155899047852,-0.8280755877494812,0.21334215998649597
1714065780704555300,5.33355517578125,-1.246232032775879,-1.3156800270080566,-0.8370246887207031
1714065780714434000,5.34343408203125,0.8506431579589844,-0.8993721604347229,0.06978145241737366
1714065780724313900,5.35331396484375,1.324965476989746,1.5720479488372803,1.706294298171997
1714065780734194200,5.363194091796875,-6.989940166473389,1.576988935470581,-1.7743377685546875
1714065780744073700,5.37307373046875,0.1433868408203125,0.3112656772136688,-1.9989194869995117
1714065780753952500,5.382952392578125,4.721678733825684,-2.7084455490112305,1.5814324617385864
1714065780763832000,5.39283203125,4.349225044250488,-1.6141823530197144,-0.36411142349243164
1714065780773712400,5.40271240234375,0.1388540267944336,0.08242444694042206,0.546597957611084
1714065780783592200,5.41259228515625,-6.165346145629883,1.927924394607544,-1.307249903678894
1714065780793470700,5.422470703125,-3.345582962036133,0.8007298707962036,0.2688538134098053
1714065780803350500,5.4323505859375,4.579150199890137,-1.104193091392517,-0.07531683146953583
1714065780813230800,5.44223095703125,2.9314842224121094,-0.7531864643096924,-0.6666692495346069
1714065780823110400,5.4521103515625,-1.8922691345214844,-0.8524524569511414,-0.8014507293701172
1714065780832989200,5.4619892578125,3.2192420959472656,0.683721125125885,1.5925922393798828
1714065780842868700,5.47186865234375,-6.732088088989258,2.6193363666534424,-1.028868556022644
1714065780852749000,5.4817490234375,-1.824514389038086,1.2367737293243408,-2.202191114425659
1714065780862628900,5.49162890625,3.3370752334594727,-2.7080650329589844,-0.5266451835632324
1714065780872507400,5.50150732421875,4.402582168579102,-2.107067584991455,1.5509222745895386
1714065780882387200,5.51138720703125,5.115056037902832,0.7312272787094116,1.3009815216064453
1714065780892267500,5.521267578125,-6.118878364562988,1.8596571683883667,-0.9601080417633057
1714065780902147000,5.53114697265625,-7.2600626945495605,1.0184242725372314,-1.413081407546997
1714065780912025900,5.54102587890625,3.3354530334472656,-1.0696470737457275,-0.17904606461524963
1714065780921905400,5.550905517578125,7.486228942871094,-1.1183910369873047,-0.38775306940078735
1714065780931786000,5.560785888671875,-1.7110404968261719,-0.701547384262085,-1.9797133207321167
1714065780941665500,5.57066552734375,1.8672065734863281,-0.49606508016586304,1.439587116241455
1714065780951544300,5.58054443359375,-4.315062999725342,1.52267324924469,0.07477802038192749
1714065780961424000,5.590423828125,-8.455904006958008,1.906479001045227,-1.296170949935913
1714065780971304200,5.60030419921875,4.916987419128418,-0.8528770208358765,1.4476772546768188
1714065780981183700,5.610183837890625,5.475411415100098,-3.5243916511535645,-0.5196325182914734
1714065780991062500,5.6200625,6.292266845703125,-1.1217377185821533,1.373634934425354
1714065781000942000,5.629942138671875,-2.0539793968200684,0.4685070812702179,-2.0509331226348877
1714065781010822700,5.63982275390625,-10.164631843566895,1.3927916288375854,-0.9848356246948242
1714065781020702200,5.6497021484375,-6.453094482421875,1.877788782119751,-0.6111878156661987
1714065781030581000,5.6595810546875,3.6454334259033203,1.983642339706421,1.29103422164917
1714065781040460500,5.66946044921875,3.748213768005371,-2.819719076156616,-1.136472225189209
1714065781050340900,5.6793408203125,5.170557975769043,-0.4687801003456116,1.7263178825378418
1714065781060220400,5.689220458984375,3.8098068237304688,0.18381845951080322,-1.4026257991790771
1714065781070099200,5.69909912109375,-9.634161949157715,0.856342077255249,-1.4005544185638428
1714065781079979000,5.70897900390625,-1.7347517013549805,0.23245000839233398,-0.47744864225387573
1714065781089859300,5.718859375,-5.722298622131348,0.6898656487464905,-2.6156818866729736
1714065781099739000,5.72873876953125,3.4334516525268555,-1.8708373308181763,2.5512642860412598
1714065781109617700,5.73861767578125,10.711848258972168,-0.6315666437149048,1.0060919523239136
1714065781119497200,5.748497314453125,3.6780738830566406,-0.00950835645198822,-3.208529233932495
1714065781129377800,5.758377685546875,-9.350236892700195,-0.6799255609512329,-2.35275936126709
1714065781139257300,5.76825732421875,-4.665365219116211,0.8540675044059753,0.783972442150116
1714065781149136000,5.778135986328125,-5.045276165008545,-0.61529141664505,0.055144235491752625
1714065781159015700,5.788015625,4.749616622924805,0.019779667258262634,3.479067802429199
1714065781168896000,5.79789599609375,7.501760482788086,-1.039729356765747,-0.5478594303131104
1714065781178775600,5.807775634765625,3.21651554107666,-0.25841692090034485,-2.7369561195373535
1714065781188654300,5.817654296875,-9.41445541381836,0.18429948389530182,-1.5937490463256836
1714065781198534000,5.827533935546875,-1.318150520324707,0.8162420988082886,-1.1657640933990479
1714065781208414200,5.837414306640625,-0.8770294189453125,-0.7020775079727173,-0.21372821927070618
1714065781218294000,5.8472939453125,5.763408660888672,-0.9483944177627563,3.1346917152404785
1714065781228172500,5.857172607421875,0.6782646179199219,-0.4967217445373535,-1.1360549926757812
1714065781238052400,5.86705224609375,-8.227753639221191,0.820879340171814,-1.7193306684494019
1714065781247932700,5.8769326171875,5.452385902404785,-1.0950720310211182,1.836317777633667
1714065781257812200,5.886812255859375,2.6226816177368164,-1.0502907037734985,-2.5258302688598633
1714065781267691000,5.89669091796875,0.31887245178222656,0.34677380323410034,0.5495617985725403
1714065781277570600,5.906570556640625,0.3464689254760742,0.9085874557495117,0.44223129749298096
1714065781287451100,5.916451171875,-6.777560234069824,0.8807563781738281,-1.7368950843811035
1714065781297330700,5.92633056640625,4.449305534362793,-0.6253747344017029,-0.14770635962486267
1714065781307209200,5.936209228515625,-1.7871360778808594,-1.062757134437561,-1.8165985345840454
1714065781317089000,5.946089111328125,1.265584945678711,-1.1597625017166138,1.5851609706878662
1714065781326969300,5.95596923828125,8.766393661499023,-0.054970357567071915,0.8842622637748718
1714065781336849000,5.965848876953125,-8.99659538269043,0.054045550525188446,-1.1998924016952515
1714065781346727700,5.975727783203125,0.5311641693115234,1.1786460876464844,-2.0665132999420166
1714065781356607200,5.985607177734375,-0.0074310302734375,-0.17037279903888702,0.8472947478294373
1714065781366487800,5.99548779296875,-0.41307735443115234,-1.4506051540374756,-1.422739028930664
1714065781376367400,6.005367431640625,4.2631072998046875,-0.5497553944587708,2.334397077560425
1714065781386246100,6.01524609375,-2.3487648963928223,1.2328355312347412,-0.9490945339202881
1714065781396125700,6.025125732421875,-6.576475620269775,0.3562285304069519,-1.9672133922576904
1714065781406006000,6.035006103515625,6.946520805358887,-0.7980971336364746,1.7696410417556763
1714065781415885600,6.044885498046875,-2.095747470855713,-1.43177330493927,-1.9962506294250488
1714065781425764400,6.054764404296875,-1.8659543991088867,-0.6430555582046509,-0.6159690618515015
1714065781435644000,6.064643798828125,7.446694374084473,-0.568618893623352,1.3543367385864258
1714065781445524500,6.0745244140625,-6.854364395141602,2.318079710006714,-8.69153881072998
1714065781455404000,6.084404052734375,-6.08313512802124,2.197150707244873,-0.21631716191768646
1714065781465282800,6.09428271484375,4.65018367767334,-0.6755934953689575,2.7123799324035645
1714065781475162400,6.104162353515625,1.8559770584106445,-1.2912331819534302,2.29367733001709
1714065781485042700,6.114042724609375,2.9371261596679688,-1.941080093383789,0.1571921408176422
1714065781494922200,6.123922119140625,0.45795440673828125,-0.1704493761062622,-3.010143280029297
1714065781504801000,6.133801025390625,-4.010313510894775,0.8622356057167053,-0.33171579241752625
1714065781514680800,6.143680908203125,4.78279972076416,2.9141972064971924,2.282111644744873
1714065781524561200,6.15356103515625,-6.354686260223389,1.8990474939346313,0.26411399245262146
1714065781534440700,6.163440673828125,-1.5681438446044922,0.9554919600486755,-0.05516555905342102
1714065781544319500,6.173319580078125,2.940882682800293,-2.6701204776763916,-0.835350751876831
1714065781554199000,6.183198974609375,4.09835147857666,-2.8157272338867188,0.6094309091567993
1714065781564079600,6.19307958984375,5.1301116943359375,-0.3278179168701172,-0.28627854585647583
1714065781573959200,6.202959228515625,-8.887998580932617,-0.38798409700393677,-1.1460187435150146
1714065781583837700,6.212837646484375,-2.6082630157470703,0.08183878660202026,0.8226602077484131
1714065781593717500,6.222717529296875,4.949131011962891,-1.8370556831359863,0.004035960882902145
1714065781603597800,6.232597900390625,-1.0569028854370117,-1.3462412357330322,-4.218909740447998
1714065781613477400,6.242477294921875,-3.697993755340576,1.081716775894165,-2.4706716537475586
1714065781623356200,6.252356201171875,8.229207992553711,-1.1732784509658813,0.15986856818199158
1714065781633235700,6.262235595703125,-4.353061199188232,-0.6422944068908691,-0.18565545976161957
1714065781643116000,6.272115966796875,-1.674367904663086,1.8090336322784424,1.1973745822906494
1714065781652995800,6.281995849609375,-3.0352864265441895,0.9615731239318848,-1.072414517402649
1714065781662874400,6.291874267578125,2.575749397277832,-1.6851885318756104,1.476481556892395
1714065781672754200,6.301754150390625,11.125502586364746,0.3629138767719269,2.2300546169281006
1714065781682634500,6.311634521484375,-8.520649909973145,1.5580347776412964,-3.1870408058166504
1714065781692514000,6.32151416015625,-6.850502014160156,0.587247371673584,0.7120398283004761
1714065781702392800,6.331392822265625,5.834478378295898,-0.9413055181503296,2.1266415119171143
1714065781712272400,6.3412724609375,-0.07416152954101562,-0.676014244556427,-3.3777618408203125
1714065781722153000,6.351153076171875,0.9486160278320312,0.0011585801839828491,-1.0248525142669678
1714065781732032500,6.361032470703125,6.409143447875977,-1.0637116432189941,1.1653276681900024
1714065781741911000,6.3709111328125,-5.771998882293701,0.22862182557582855,-1.3487120866775513
1714065781751790800,6.380790771484375,-3.6885299682617188,1.6671942472457886,-2.085926055908203
1714065781761671200,6.390671142578125,-7.015209674835205,1.1730716228485107,-1.8083316087722778
1714065781771550700,6.40055078125,9.144600868225098,-1.1043903827667236,2.8777289390563965
1714065781781429500,6.410429443359375,8.90371322631836,-0.3466927409172058,1.7228657007217407
1714065781791309000,6.42030908203125,-6.873430252075195,-0.8661075830459595,-1.045646071434021
1714065781801189600,6.430189697265625,-2.8348584175109863,0.8200500011444092,1.399600625038147
1714065781811069200,6.440069091796875,2.4277992248535156,0.9262534976005554,-0.33590447902679443
1714065781820948000,6.449947998046875,-7.349135398864746,0.9532939195632935,-1.802626371383667
1714065781830827500,6.45982763671875,7.829190254211426,-0.8888164758682251,0.6356794834136963
1714065781840707800,6.469707763671875,2.1706438064575195,-1.5060769319534302,-2.3524320125579834
1714065781850587400,6.47958740234375,-4.975368976593018,-0.9153686761856079,-2.4860429763793945
1714065781860466200,6.489466064453125,0.22150039672851562,0.46466922760009766,-2.9006497859954834
1714065781870345700,6.499345703125,-8.019294738769531,0.7592978477478027,-4.29875373840332
1714065781880226300,6.509226318359375,5.990711212158203,0.2350292205810547,-0.42089545726776123
1714065781890105900,6.51910595703125,7.057747840881348,-0.6772037744522095,-0.5951052904129028
1714065781899984600,6.528984619140625,-9.472895622253418,0.9885157346725464,-5.692230224609375
1714065781909864200,6.5388642578125,2.225979804992676,-0.00754159688949585,-2.983574867248535
1714065781919744500,6.54874462890625,2.690582275390625,-1.3778820037841797,-3.21148943901062
1714065781929624000,6.5586240234375,-2.407456874847412,0.9835505485534668,-2.860621452331543
1714065781939502800,6.5685029296875,3.356236457824707,0.812409520149231,-1.835337519645691
1714065781949382700,6.578382568359375,-1.279489517211914,1.0154591798782349,-2.378457546234131
1714065781959263000,6.588262939453125,-2.4122233390808105,-0.5112485289573669,-4.212325572967529
1714065781969142500,6.598142578125,5.122768402099609,-0.8226584196090698,-2.1145741939544678
1714065781979021300,6.608021240234375,-2.216496467590332,1.1711041927337646,-4.070836544036865
1714065781988900900,6.61790087890625,-7.3931403160095215,0.014616698026657104,-2.6109719276428223
1714065781998781200,6.62778125,13.881199836730957,-1.9508603811264038,-1.2157683372497559
1714065782008660700,6.63766064453125,10.039519309997559,-1.470282793045044,-17.65192222595215
1714065782018539500,6.64753955078125,-11.126148223876953,1.892892599105835,-0.5856575965881348
1714065782028419300,6.65741943359375,-5.673770904541016,2.860029458999634,-0.8186156153678894
1714065782038299600,6.667299560546875,-0.32312679290771484,1.1862889528274536,1.1656888723373413
1714065782048179200,6.67717919921875,-5.109982013702393,0.37970486283302307,2.023468494415283
1714065782058058000,6.68705810546875,2.3458080291748047,-1.1314435005187988,4.545144081115723
1714065782067937500,6.6969375,3.9045190811157227,-1.9265601634979248,1.1690045595169067
1714065782077817900,6.70681787109375,8.716465950012207,-3.1896257400512695,-2.1301934719085693
1714065782087697700,6.71669775390625,15.480084419250488,0.3460848927497864,-0.5831922888755798
1714065782097576200,6.726576171875,-9.75926399230957,2.8785147666931152,-5.309431552886963
1714065782107456000,6.7364560546875,-20.864377975463867,0.8810979127883911,-11.225927352905273
1714065782117336300,6.74633642578125,-10.965575218200684,-3.7368967533111572,-9.628754615783691
1714065782127215900,6.7562158203125,7.130731582641602,-0.47218412160873413,-3.7436306476593018
1714065782137094700,6.7660947265625,-11.155835151672363,1.4273179769515991,-6.918881893157959
1714065782146974200,6.77597412109375,6.55324649810791,3.641488552093506,2.2093281745910645
1714065782156854500,6.7858544921875,1.503535270690918,-0.19153659045696259,2.152261257171631
1714065782166734300,6.795734375,7.049260139465332,-1.3822593688964844,4.5133161544799805
1714065782176612900,6.80561279296875,3.8060741424560547,0.33583882451057434,-2.1213722229003906
1714065782186492700,6.81549267578125,-3.8184051513671875,0.4197494387626648,-3.6624088287353516
1714065782196373000,6.825373046875,0.7115154266357422,2.0661020278930664,-0.5582820177078247
1714065782206252500,6.83525244140625,-1.6589412689208984,-0.9068644046783447,1.0191154479980469
1714065782216131300,6.84513134765625,1.3743400573730469,0.09185533225536346,-0.7038558721542358
1714065782226011000,6.855010986328125,-4.636495590209961,0.5791271924972534,-3.2855165004730225
1714065782235891200,6.86489111328125,-0.9241628646850586,0.5889604091644287,-3.334318161010742
1714065782245771000,6.87477099609375,4.066546440124512,-0.3946520984172821,-1.0618211030960083
1714065782255649500,6.8846494140625,-0.22869014739990234,-0.03554406762123108,-2.429640769958496
1714065782265529300,6.894529296875,0.10259246826171875,0.23087632656097412,-3.0282886028289795
1714065782275409700,6.90440966796875,1.1929740905761719,0.13470667600631714,-1.2443000078201294
1714065782285289200,6.914289306640625,2.4873437881469727,-0.44939517974853516,-1.9670774936676025
1714065782295168000,6.92416796875,-8.869261741638184,1.536206603050232,-1.4460363388061523
1714065782305047600,6.934047607421875,-7.29075813293457,0.7285912036895752,-2.6350154876708984
1714065782314928000,6.94392822265625,4.814382553100586,-1.7029533386230469,2.0214953422546387
1714065782324807700,6.9538076171875,12.353986740112305,-3.9434330463409424,-1.737326979637146
1714065782334686500,6.9636865234375,6.879575729370117,-1.3077131509780884,-6.13504695892334
1714065782344566000,6.97356591796875,-11.232177734375,-0.44186052680015564,-2.5647196769714355
1714065782354446300,6.9834462890625,-8.233110427856445,1.5073753595352173,-0.780870795249939
1714065782364326000,6.993325927734375,7.140135765075684,2.5580265522003174,-2.7518556118011475
1714065782374204700,7.00320458984375,-0.03813743591308594,0.07639741897583008,-0.37887877225875854
1714065782384084200,7.013084228515625,2.301450729370117,-0.7745134830474854,-1.777584195137024
1714065782393964800,7.02296484375,-2.7266030311584473,0.03380434215068817,-2.5421299934387207
1714065782403844400,7.03284423828125,-1.573622703552246,-0.48070186376571655,-2.002859592437744
1714065782413723100,7.04272314453125,2.595108985900879,-0.0046221911907196045,0.6567651033401489
1714065782423602700,7.052602783203125,-0.4700441360473633,1.0969427824020386,-1.0968860387802124
1714065782433483000,7.06248291015625,-2.8996148109436035,0.015028387308120728,-3.7290494441986084
1714065782443362600,7.072362548828125,0.3044719696044922,0.5901172161102295,-1.7415320873260498
1714065782453241300,7.082241455078125,1.7962932586669922,-0.3635278642177582,-0.20668646693229675
1714065782463121000,7.092120849609375,-4.0496439933776855,-1.2076780796051025,-4.475498199462891
1714065782473001500,7.10200146484375,7.348750114440918,-0.7990642786026001,2.074479579925537
1714065782482881000,7.111881103515625,4.763592720031738,0.27345025539398193,-2.1462600231170654
1714065782492759800,7.121759765625,-10.191329956054688,0.5410985946655273,-3.6052393913269043
1714065782502639400,7.131639404296875,0.681396484375,1.047829031944275,0.10801434516906738
1714065782512519700,7.141519775390625,2.488593101501465,-0.43533897399902344,-0.3954758644104004
1714065782522399200,7.151399169921875,-1.535879135131836,0.7849419116973877,-1.5862939357757568
1714065782532278000,7.161278076171875,-1.7990961074829102,0.07568280398845673,-3.0838623046875
1714065782542157600,7.171157470703125,0.2016448974609375,0.2672719359397888,-1.4579789638519287
1714065782552038100,7.1810380859375,0.10468101501464844,-0.7016857862472534,0.4726274907588959
1714065782561917700,7.190917724609375,2.6085119247436523,-0.4283187985420227,-4.700042247772217
1714065782571796500,7.20079638671875,-3.587960720062256,1.1502889394760132,-1.855819821357727
1714065782581676000,7.210676025390625,5.7299346923828125,-0.8865222930908203,0.28290265798568726
1714065782591556400,7.220556396484375,-2.2244415283203125,-0.1471545696258545,-2.3154115676879883
1714065782601436000,7.230435791015625,-2.396282196044922,-0.37830644845962524,-2.732055187225342
1714065782611314700,7.240314697265625,2.074831008911133,0.029308319091796875,-0.7150846123695374
1714065782621194200,7.2501943359375,0.6951742172241211,0.09422433376312256,0.6931509375572205
1714065782631074800,7.26007470703125,-1.8014116287231445,1.6220543384552002,-2.32273530960083
1714065782640954400,7.269954345703125,-2.547271728515625,0.5448112487792969,-3.213998794555664
1714065782650833200,7.279833251953125,1.3605413436889648,-0.597935140132904,-1.395754098892212
1714065782660712700,7.289712646484375,1.1900396347045898,-0.44108402729034424,-0.5195042490959167
1714065782670593000,7.299593017578125,0.1509847640991211,-0.8656035661697388,-2.8022258281707764
1714065782680472600,7.30947265625,-4.582033634185791,1.4272559881210327,-3.015028953552246
1714065782690351400,7.319351318359375,1.4142580032348633,-0.8818528652191162,0.5038923621177673
1714065782700231000,7.32923095703125,10.0071439743042,-1.4823068380355835,2.1043407917022705
1714065782710111500,7.339111572265625,-5.918049335479736,0.29290953278541565,-4.588375568389893
1714065782719991000,7.348990966796875,-4.676727771759033,1.5016207695007324,-1.5813548564910889
1714065782729869800,7.358869873046875,3.378875732421875,-0.7289656400680542,-0.5038739442825317
1714065782739749400,7.368749267578125,1.6421136856079102,-0.6630522012710571,-1.0709887742996216
1714065782749629700,7.378629638671875,-1.0320148468017578,0.9411847591400146,-1.7768648862838745
1714065782759509200,7.38850927734375,-2.4195451736450195,1.2806346416473389,-1.7807307243347168
1714065782769388000,7.398387939453125,1.185934066772461,-0.2769802212715149,-1.8051304817199707
1714065782779267600,7.408267578125,1.056610107421875,-0.21696802973747253,-1.1458139419555664
1714065782789148200,7.418148193359375,-2.5808486938476562,0.6365661025047302,-0.8720316886901855
1714065782799027700,7.42802783203125,2.2295331954956055,-1.646414041519165,-2.029834032058716
1714065782808906200,7.43790625,2.3476619720458984,-0.6211798191070557,-3.1260886192321777
1714065782818786000,7.4477861328125,-5.6876068115234375,1.3921263217926025,-0.8825714588165283
1714065782828666400,7.457666259765625,5.050346374511719,-0.25186237692832947,0.5838137269020081
1714065782838546000,7.4675458984375,-1.5969877243041992,0.166265070438385,-1.4349679946899414
1714065782848424700,7.4774248046875,-2.178626537322998,0.06618529558181763,-2.521397113800049
1714065782858304300,7.48730419921875,0.4166851043701172,-0.37343475222587585,-1.5682815313339233
1714065782868184800,7.497184814453125,0.702021598815918,-1.2855911254882812,-1.1227304935455322
1714065782878064400,7.507064453125,2.3362388610839844,0.3657790720462799,-0.5160415172576904
1714065782887943000,7.51694287109375,-1.9271478652954102,0.8728659152984619,-0.2855898141860962
1714065782897822700,7.52682275390625,0.34960079193115234,0.34376251697540283,-1.5735177993774414
1714065782907703000,7.536703125,-2.4813504219055176,0.9999682903289795,-1.1925781965255737
1714065782917582600,7.54658251953125,1.4035005569458008,-0.5205824375152588,-1.9304535388946533
1714065782927461400,7.55646142578125,1.2591934204101562,-0.3962879776954651,-1.6131199598312378
1714065782937341000,7.5663408203125,-1.053659439086914,0.25899046659469604,-1.5733230113983154
1714065782947221500,7.576221435546875,-1.794015884399414,1.2458136081695557,-0.9925694465637207
1714065782957101000,7.58610107421875,1.3301734924316406,-0.21866163611412048,-1.1439850330352783
1714065782966979600,7.5959794921875,1.2341156005859375,-0.8282262086868286,-1.3982067108154297
1714065782976859400,7.605859375,-2.07484769821167,-0.018709152936935425,-2.124083995819092
1714065782986739700,7.61573974609375,-1.3180932998657227,0.16715160012245178,-0.9128854274749756
1714065782996619300,7.625619384765625,7.4608564376831055,-2.4953956604003906,0.205351322889328
1714065783006498000,7.635498046875,0.7652254104614258,0.47294771671295166,-2.294018268585205
1714065783016377600,7.645377685546875,-9.053131103515625,1.8339093923568726,-1.1162114143371582
1714065783026258000,7.6552578125,1.1989078521728516,-0.13532593846321106,-1.441981315612793
1714065783036137700,7.6651376953125,0.7538366317749023,-0.34745538234710693,-0.7144953608512878
1714065783046016300,7.675016357421875,1.2459163665771484,-1.3107177019119263,-2.4613964557647705
1714065783055896000,7.68489599609375,-0.19583892822265625,0.20425686240196228,-1.8573451042175293
1714065783065776400,7.6947763671875,-0.29830455780029297,1.3750331401824951,0.5800665616989136
1714065783075656000,7.704656005859375,-0.18100547790527344,0.45612040162086487,0.06921738386154175
1714065783085534700,7.71453466796875,1.033766746520996,-0.7193886041641235,-1.542187213897705
1714065783095414300,7.724414306640625,-1.4517393112182617,0.47218602895736694,-1.3029239177703857
1714065783105294600,7.734294677734375,-0.18515777587890625,0.9033456444740295,-1.1985783576965332
1714065783115174400,7.74417431640625,0.21050453186035156,0.22207772731781006,-2.1190671920776367
1714065783125053000,7.754052978515625,0.4034576416015625,-0.15411779284477234,-0.9908217787742615
1714065783134932700,7.7639326171875,0.7485589981079102,-0.6915756464004517,-1.8015435934066772
1714065783144813000,7.77381298828125,-1.5392723083496094,-0.41869398951530457,-1.050693392753601
1714065783154692600,7.783692626953125,-0.5952625274658203,0.14879661798477173,-0.9953213334083557
1714065783164571400,7.7935712890625,1.2644433975219727,0.5589718818664551,-0.6192705631256104
1714065783174451000,7.803450927734375,-0.5340433120727539,0.2764633297920227,-1.3449574708938599
1714065783184331300,7.813331298828125,0.4180021286010742,-0.2127743363380432,-1.92924165725708
1714065783194211000,7.823211181640625,-0.9922475814819336,0.03957703709602356,-0.5937665700912476
1714065783204089600,7.833089599609375,0.4439353942871094,0.20912739634513855,0.09138315916061401
1714065783213969400,7.842969482421875,-0.5165977478027344,-0.9473075866699219,-2.1175413131713867
1714065783223849700,7.852849609375,2.760331153869629,-0.6902660727500916,-2.2360825538635254
1714065783233729300,7.862729248046875,-2.8969883918762207,1.676998496055603,-1.0434772968292236
1714065783243608000,7.872608154296875,1.9590635299682617,0.05497673153877258,-1.0023865699768066
1714065783253487600,7.882487548828125,-0.18318939208984375,0.11784720420837402,-1.1677531003952026
1714065783263368000,7.892367919921875,-0.8091001510620117,0.30567339062690735,-0.322615385055542
1714065783273247500,7.90224755859375,-0.3742361068725586,-0.24721157550811768,-1.043897032737732
1714065783283126300,7.912126220703125,-0.41156864166259766,-0.5321149826049805,-1.662831425666809
1714065783293005800,7.922005859375,1.1643743515014648,-0.5042752027511597,-1.3139159679412842
1714065783302886400,7.931886474609375,-0.04271221160888672,0.039123207330703735,-0.49620991945266724
1714065783312766000,7.941765869140625,-1.100179672241211,0.09983450174331665,-1.0676723718643188
1714065783322644700,7.951644775390625,-0.056220054626464844,0.07782268524169922,-1.436570405960083
1714065783332524300,7.961524169921875,0.10111618041992188,0.14809831976890564,-1.3283002376556396
1714065783342404600,7.971404541015625,-0.10225868225097656,0.029475301504135132,-1.367146372795105
1714065783352284200,7.9812841796875,-0.3504819869995117,0.18115009367465973,-1.005899429321289
1714065783362163000,7.991162841796875,0.7439985275268555,-0.0656488835811615,-0.36299973726272583
1714065783372042500,8.00104248046875,0.09711456298828125,0.17876309156417847,-0.3791619539260864
1714065783381923000,8.010923095703125,-0.44531822204589844,0.3446342945098877,-1.1830079555511475
1714065783391802600,8.020802734375,-0.3199300765991211,0.15551131963729858,-0.5962825417518616
1714065783401681200,8.03068115234375,0.4118337631225586,-0.08847203850746155,-0.2618027329444885
1714065783411561000,8.04056103515625,0.040680885314941406,-0.2749880254268646,-1.0422465801239014
1714065783421441300,8.050441162109376,-0.26789379119873047,0.2012341320514679,-1.0979423522949219
1714065783431320800,8.06032080078125,0.08391666412353516,0.24480485916137695,-0.7875473499298096
1714065783441199600,8.07019970703125,0.38745975494384766,0.014216333627700806,-0.5375086069107056
1714065783451079200,8.0800791015625,-0.13163471221923828,-0.07985308766365051,-0.9124815464019775
1714065783460959500,8.08995947265625,-0.3127298355102539,-0.020706862211227417,-0.9025244116783142
1714065783470839300,8.09983935546875,-0.23344993591308594,-0.00848609209060669,-1.4009671211242676
1714065783480717800,8.1097177734375,-0.15902996063232422,0.16010922193527222,-0.4258120059967041
1714065783490597600,8.11959765625,0.27144622802734375,0.25487515330314636,-0.26812076568603516
1714065783500478000,8.12947802734375,-0.1706247329711914,0.27773556113243103,-1.0570759773254395
1714065783510357500,8.139357421875,0.1429300308227539,0.04757973551750183,-1.9226140975952148
1714065783520236300,8.149236328125,-0.9828386306762695,0.19984018802642822,-0.6677165031433105
1714065783530115800,8.15911572265625,1.2506580352783203,-0.2308272123336792,-0.08516144752502441
1714065783539996200,8.16899609375,-0.005190849304199219,-0.10892897844314575,-2.3562188148498535
1714065783549876000,8.1788759765625,-1.8087472915649414,0.1620112806558609,-3.0804247856140137
1714065783559754500,8.18875439453125,0.13627338409423828,0.08996318280696869,-0.18501520156860352
1714065783569634300,8.19863427734375,2.507887840270996,-0.2582210302352905,0.3433492183685303
1714065783579514600,8.2085146484375,-2.205325126647949,0.10457789897918701,-1.6173079013824463
1714065783589394200,8.218394287109374,0.0017490386962890625,0.11089226603507996,-0.4483775496482849
1714065783599273000,8.22827294921875,0.830143928527832,-0.06313961744308472,0.2431270182132721
1714065783609152500,8.238152587890625,-0.074737548828125,0.21791794896125793,0.37036290764808655
1714065783619032800,8.24803271484375,-0.44000911712646484,0.15274429321289062,0.33129367232322693
1714065783628912400,8.257912353515625,0.3061637878417969,0.004228681325912476,0.6024459004402161
1714065783638791200,8.267791259765625,-0.0027332305908203125,0.03471168875694275,0.5404913425445557
1714065783648670700,8.277670654296875,-0.10542583465576172,0.0899696946144104,0.5960661172866821
1714065783658551300,8.28755126953125,0.11219024658203125,0.06102433800697327,0.5999259948730469
1714065783668430800,8.297430908203125,-0.014585494995117188,0.1039150208234787,0.46825525164604187
1714065783678309600,8.3073095703125,-0.05029010772705078,0.10193336009979248,0.18860608339309692
1714065783688189200,8.317189208984376,0.03580665588378906,0.06377404928207397,0.08051753044128418
1714065783698069500,8.327069580078126,-0.01925373077392578,0.05888807773590088,0.17270690202713013
1714065783707949000,8.336948974609374,0.033336639404296875,0.06609022617340088,0.401502400636673
1714065783717827800,8.346827880859376,0.06432533264160156,0.06347379088401794,0.4105045199394226
1714065783727707400,8.356707275390624,0.0021333694458007812,0.08988219499588013,0.3147681951522827
1714065783737587700,8.366587646484374,-0.009785652160644531,0.09962061047554016,0.19001609086990356
1714065783747467500,8.376467529296875,0.026061058044433594,0.07578825950622559,0.20849794149398804
1714065783757346000,8.386345947265625,0.016439437866210938,0.0638357400894165,0.3129056692123413
1714065783767225900,8.396225830078125,0.04747486114501953,0.05895715951919556,0.36750343441963196
1714065783777106200,8.406106201171875,0.025893211364746094,0.07558378577232361,0.30733537673950195
1714065783786985700,8.41598583984375,-0.014746665954589844,0.08285701274871826,0.2399127185344696
1714065783796864500,8.425864501953125,0.0020074844360351562,0.08294767141342163,0.22961241006851196
1714065783806744000,8.435744140625,0.013949394226074219,0.06870946288108826,0.2934896945953369
1714065783816624400,8.445624267578125,0.021106719970703125,0.07110333442687988,0.32891082763671875
1714065783826504200,8.455504150390626,0.02824115753173828,0.06381845474243164,0.2878238558769226
1714065783836382700,8.4653828125,-0.0004711151123046875,0.07327602803707123,0.24910348653793335
1714065783846262500,8.475262451171876,-0.012403488159179688,0.09488372504711151,0.26039353013038635
1714065783856142800,8.485142822265624,0.011524200439453125,0.07822756469249725,0.29326874017715454
1714065783866022400,8.4950224609375,0.009130477905273438,0.07116550207138062,0.304688960313797
1714065783875901200,8.504901123046874,0.016286849975585938,0.054335445165634155,0.2898075580596924
1714065783885780700,8.51478076171875,-0.0052318572998046875,0.05664491653442383,0.2463098168373108
1714065783895661000,8.5246611328125,-0.002819061279296875,0.09250254929065704,0.2601153254508972
1714065783905540900,8.534540771484375,-0.0027894973754882812,0.07346422970294952,0.28833526372909546
1714065783915419400,8.54441943359375,-0.0051441192626953125,0.07106995582580566,0.28794753551483154
1714065783925299200,8.55429931640625,0.006829261779785156,0.05674111843109131,0.26117122173309326
1714065783935179500,8.564179443359375,-0.00034427642822265625,0.07098516821861267,0.2462821900844574
1714065783945059000,8.57405908203125,-0.012273788452148438,0.07814957201480865,0.2576996088027954
1714065783954937900,8.583937744140625,-0.026567459106445312,0.07096737623214722,0.2785206139087677
1714065783964817400,8.5938173828125,0.11204338073730469,0.06619861721992493,0.2997669279575348
1714065783974697700,8.60369775390625,-0.17719078063964844,0.06633099913597107,0.2512274384498596
1714065783984577300,8.613577392578126,0.17432689666748047,0.06384158134460449,0.272421658039093
1714065783994456000,8.6234560546875,-0.11028289794921875,0.07126444578170776,0.23589110374450684
1714065784004335600,8.633335693359374,0.06912612915039062,0.07843546569347382,0.2857810854911804
1714065784014216200,8.64321630859375,-0.019394874572753906,0.08080504834651947,0.25172558426856995
1714065784024095700,8.653095703125,0.02845287322998047,0.0737365335226059,0.2778189778327942
1714065784033974500,8.662974609375,-0.000270843505859375,0.0641772449016571,0.2532155513763428
1714065784043854000,8.67285400390625,0.04683685302734375,0.07976202666759491,0.2751012444496155
1714065784053734400,8.682734375,-0.02219676971435547,0.06471976637840271,0.24706554412841797
1714065784063614000,8.692614013671875,0.03704547882080078,0.08029547333717346,0.2690538167953491
1714065784073492700,8.70249267578125,0.022321701049804688,0.07912519574165344,0.2412412464618683
1714065784083372300,8.712372314453125,-0.010994911193847656,0.059266507625579834,0.23495763540267944
1714065784093252900,8.7222529296875,0.07159996032714844,0.07246725261211395,0.2594981789588928
1714065784103132400,8.73213232421875,-0.0331573486328125,0.07155312597751617,0.2389037013053894
1714065784113011000,8.742010986328125,0.054518699645996094,0.0752439796924591,0.2516111731529236
1714065784122890800,8.751890869140626,0.008901596069335938,0.07192938029766083,0.2335023283958435
1714065784132771000,8.76177099609375,-0.0053577423095703125,0.06631585955619812,0.22970187664031982
1714065784142650600,8.771650634765624,0.0536041259765625,0.06303144991397858,0.23314601182937622
1714065784152529400,8.781529296875,-0.013186454772949219,0.06698296964168549,0.22005337476730347
1714065784162409000,8.791408935546874,0.034132957458496094,0.06604166328907013,0.21424144506454468
1714065784172289300,8.801289306640625,0.012393951416015625,0.06983107328414917,0.222648024559021
1714065784182169000,8.811169189453125,-0.006628990173339844,0.0664881020784378,0.2026677429676056
1714065784192047600,8.821047607421875,0.009977340698242188,0.05849243700504303,0.20420819520950317
1714065784201927400,8.830927490234375,-0.0019359588623046875,0.05063006281852722,0.21290433406829834
1714065784211807700,8.840807861328125,-0.018362998962402344,0.052434176206588745,0.19544070959091187
1714065784221687300,8.850687255859375,0.014918327331542969,0.05408954620361328,0.18062224984169006
1714065784231566000,8.860566162109375,-0.02062225341796875,0.0464191734790802,0.18253016471862793
1714065784241445600,8.870445556640625,0.00798797607421875,0.04817479848861694,0.19146889448165894
1714065784251326000,8.880325927734376,0.005511283874511719,0.04519274830818176,0.1836605668067932
1714065784261205800,8.890205810546876,-0.008690834045410156,0.046968817710876465,0.17374682426452637
1714065784271084300,8.900084228515626,-0.0038204193115234375,0.03694424033164978,0.18518614768981934
1714065784280964000,8.909964111328126,-0.0013866424560546875,0.05062875151634216,0.16818439960479736
1714065784290844400,8.919844482421874,-0.013118743896484375,0.05466839671134949,0.1702996790409088
1714065784300724000,8.929723876953124,0.008306503295898438,0.054050952196121216,0.17002546787261963
1714065784310602800,8.939602783203124,-0.005936622619628906,0.05579797923564911,0.16740161180496216
1714065784320482300,8.949482421875,0.01772022247314453,0.045626282691955566,0.17894667387008667
1714065784330362600,8.959362548828125,0.010372161865234375,0.045040905475616455,0.16193032264709473
1714065784340242200,8.9692421875,0.0031499862670898438,0.05611763894557953,0.16414976119995117
1714065784350121000,8.979120849609375,0.014883041381835938,0.05064898729324341,0.1663322150707245
1714065784360000500,8.98900048828125,0.01700592041015625,0.052334144711494446,0.15435314178466797
1714065784369881000,8.998881103515625,0.02380084991455078,0.05399124324321747,0.16611573100090027
1714065784379760600,9.0087607421875,0.011651992797851562,0.06044773757457733,0.16120287775993347
1714065784389639400,9.018639404296875,0.0185394287109375,0.05267144739627838,0.14224672317504883
1714065784399519000,9.02851904296875,0.011182785034179688,0.0449061244726181,0.15891945362091064
1714065784409399300,9.0383994140625,0.01572418212890625,0.04915989935398102,0.1494181752204895
1714065784419278800,9.04827880859375,0.027248382568359375,0.04145312309265137,0.1494920253753662
1714065784429157600,9.05815771484375,0.02445507049560547,0.04329155385494232,0.14721044898033142
1714065784439037200,9.068037109375,0.0075855255126953125,0.042869552969932556,0.14496344327926636
1714065784448917800,9.077917724609375,0.005120277404785156,0.04703859984874725,0.14981994032859802
1714065784458797300,9.08779736328125,0.0026960372924804688,0.03701299428939819,0.13811615109443665
1714065784468675800,9.09767578125,0.00031185150146484375,0.043633848428726196,0.13602414727210999
1714065784478555600,9.1075556640625,0.00032138824462890625,0.04073317348957062,0.12690100073814392
1714065784488436000,9.11743603515625,-0.013796806335449219,0.040348127484321594,0.12252306938171387
1714065784498315500,9.1273154296875,0.0005779266357421875,0.035261064767837524,0.12069100141525269
1714065784508194300,9.1371943359375,0.021770477294921875,0.04191109538078308,0.12124362587928772
1714065784518073900,9.147073974609375,-0.00211334228515625,0.029616743326187134,0.12661415338516235
1714065784527954200,9.1569541015625,-0.018548011779785156,0.02929827570915222,0.11988678574562073
1714065784537834000,9.166833984375,0.010026931762695312,0.024282217025756836,0.13222041726112366
1714065784547712500,9.17671240234375,-0.041919708251953125,0.04300485551357269,0.11362865567207336
1714065784557592300,9.18659228515625,-0.008252143859863281,0.028338074684143066,0.11653456091880798
1714065784567472600,9.19647265625,0.0060253143310546875,0.03510352969169617,0.1124480664730072
1714065784577352200,9.206352294921874,-0.008176803588867188,0.03481227159500122,0.1085483729839325
1714065784587231000,9.21623095703125,-0.02215576171875,0.04146973788738251,0.09976792335510254
1714065784597110500,9.226110595703124,0.03237724304199219,0.03400978446006775,0.10773184895515442
1714065784606990800,9.235990966796875,-0.012882232666015625,0.031263917684555054,0.10838183760643005
1714065784616870400,9.245870361328125,0.01795196533203125,0.0379805862903595,0.10207700729370117
1714065784626749200,9.255749267578125,0.015316009521484375,0.03999556601047516,0.10293984413146973
1714065784636629000,9.26562890625,0.012723922729492188,0.04668538272380829,0.1014341413974762
1714065784646509300,9.27550927734375,0.014872550964355469,0.03419278562068939,0.10689747333526611
1714065784656388900,9.285388916015625,0.014647483825683594,0.03627091646194458,0.10779866576194763
1714065784666267600,9.295267578125,0.0026502609252929688,0.028897613286972046,0.09679517149925232
1714065784676147200,9.305147216796875,0.04734992980957031,0.03330473601818085,0.12128469347953796
1714065784686027500,9.315027587890626,0.0042018890380859375,0.04246032238006592,0.08886873722076416
1714065784695907000,9.324906982421876,0.027688026428222656,0.037219420075416565,0.092305988073349
1714065784705785900,9.334785888671876,0.010761260986328125,0.0414775013923645,0.0933351218700409
1714065784715665400,9.34466552734375,0.02001667022705078,0.029309093952178955,0.09434372186660767
1714065784725545700,9.354545654296874,-0.00148773193359375,0.02676030993461609,0.08827292919158936
1714065784735425500,9.364425537109375,0.012679100036621094,0.03837917745113373,0.0964285135269165
1714065784745304000,9.374303955078124,0.005421638488769531,0.028616607189178467,0.09738558530807495
1714065784755183900,9.384183837890625,0.000640869140625,0.030787721276283264,0.09126409888267517
1714065784765064200,9.394064208984375,-0.0064239501953125,0.0328039824962616,0.08512595295906067
1714065784774943700,9.40394384765625,0.0031137466430664062,0.02066144347190857,0.09097975492477417
1714065784784822500,9.413822509765625,-0.013409614562988281,0.015788882970809937,0.08484303951263428
1714065784794702000,9.4237021484375,-0.001399993896484375,0.022768527269363403,0.08128151297569275
1714065784804582400,9.43358251953125,-0.01784229278564453,0.04139779508113861,0.08249104022979736
1714065784814462200,9.443462158203126,-0.008115768432617188,0.0268765389919281,0.0835617184638977
1714065784824340700,9.4533408203125,-0.000904083251953125,0.012478560209274292,0.070607990026474
1714065784834220500,9.463220458984376,-0.005583763122558594,0.02421671152114868,0.07199540734291077
1714065784844100900,9.473100830078126,-0.014899253845214844,0.03576420247554779,0.08030030131340027
1714065784853980400,9.48298046875,0.004195213317871094,0.023572295904159546,0.07917195558547974
1714065784863859200,9.492859130859374,-0.005270957946777344,0.023591935634613037,0.056874603033065796
1714065784873738800,9.50273876953125,-0.000457763671875,0.025846779346466064,0.07497027516365051
1714065784883619000,9.512619140625,0.0042705535888671875,0.03029957413673401,0.06686818599700928
1714065784893498600,9.52249853515625,0.011275291442871094,0.03703233599662781,0.06360951066017151
1714065784903377400,9.53237744140625,0.008747100830078125,0.02481931447982788,0.06982195377349854
1714065784913257000,9.542257080078125,0.018032073974609375,0.03164340555667877,0.07122242450714111
1714065784923137500,9.552137451171875,0.024806976318359375,0.03364540636539459,0.06318283081054688
1714065784933017000,9.56201708984375,0.02440643310546875,0.023843050003051758,0.07646498084068298
1714065784942895600,9.5718955078125,0.026366233825683594,0.04245439171791077,0.06833797693252563
1714065784952775400,9.581775390625,0.016523361206054688,0.02073422074317932,0.07211741805076599
1714065784962655700,9.59165576171875,0.013907432556152344,0.03468906879425049,0.07112553715705872
1714065784972535300,9.601535400390626,0.023108482360839844,0.03675903379917145,0.07485854625701904
1714065784982414000,9.6114140625,0.029798507690429688,0.03396737575531006,0.0620499849319458
1714065784992293600,9.621293701171876,0.00341796875,0.017097115516662598,0.06593427062034607
1714065785002174000,9.631174072265624,0.010440826416015625,0.0241687148809433,0.06504541635513306
1714065785012053800,9.6410537109375,0.012630462646484375,0.03335791826248169,0.05463588237762451
1714065785021932300,9.650932373046874,0.005370140075683594,0.023565098643302917,0.0539320707321167
1714065785031812000,9.66081201171875,0.00293731689453125,0.004637479782104492,0.06724649667739868
1714065785041692400,9.6706923828125,-0.0018110275268554688,0.023569002747535706,0.05444604158401489
1714065785051572000,9.680572021484375,-0.015895843505859375,0.018761754035949707,0.05127575993537903
1714065785061450800,9.69045068359375,-0.02975177764892578,0.018628954887390137,0.06451570987701416
1714065785071330300,9.700330322265625,0.0013570785522460938,0.016139507293701172,0.049406588077545166
1714065785081210600,9.710210693359375,0.029598236083984375,0.02546250820159912,0.06056419014930725
1714065785091090200,9.720090087890625,-0.02973461151123047,0.025332093238830566,0.05505645275115967
1714065785100969000,9.729968994140625,-0.041001319885253906,0.008605718612670898,0.030688196420669556
1714065785110848500,9.7398486328125,0.056221961975097656,0.0039337873458862305,0.039918988943099976
1714065785120729000,9.74972900390625,-0.06711673736572266,0.013578951358795166,0.04417210817337036
1714065785130608600,9.759608642578126,-0.009491920471191406,0.01340910792350769,0.045881420373916626
1714065785140487200,9.769487060546876,0.06365966796875,0.02513641119003296,0.057094454765319824
1714065785150367000,9.779366943359374,-0.03154945373535156,0.01335453987121582,0.03516840934753418
1714065785160247300,9.789247314453124,0.01606464385986328,0.034376248717308044,0.03467357158660889
1714065785170126800,9.799126953125,0.041710853576660156,0.033983126282691956,0.053254783153533936
1714065785180005600,9.809005615234375,-0.031948089599609375,0.031356483697891235,0.043160438537597656
1714065785189885200,9.81888525390625,0.04863166809082031,0.023827791213989258,0.06607437133789062
1714065785199765500,9.828765625,0.007815361022949219,0.026078835129737854,0.046349674463272095
1714065785209645000,9.83864501953125,0.005344390869140625,0.02817361056804657,0.048141419887542725
1714065785219523800,9.84852392578125,0.021747589111328125,0.0255250483751297,0.04754912853240967
1714065785229403400,9.8584033203125,0.014338493347167969,0.03481040894985199,0.05402928590774536
1714065785239284000,9.868283935546875,0.016466140747070312,0.02498866617679596,0.06040149927139282
1714065785249163500,9.87816357421875,0.016201019287109375,0.0316912978887558,0.04547971487045288
1714065785259042300,9.888042236328126,0.008884429931640625,0.02204027771949768,0.051994383335113525
1714065785268921900,9.897921875,0.011104583740234375,0.014785587787628174,0.041921138763427734
1714065785278802200,9.90780224609375,0.001514434814453125,0.02648542821407318,0.04378676414489746
1714065785288681700,9.917681640625,0.0015048980712890625,0.02398379147052765,0.040912896394729614
1714065785298560500,9.927560546875,0.0038480758666992188,0.023759320378303528,0.031024307012557983
1714065785308440000,9.937440185546874,-0.017395973205566406,0.014121800661087036,0.030598580837249756
1714065785318320400,9.9473203125,0.0040950775146484375,0.011707544326782227,0.044423907995224
1714065785328200000,9.957199951171875,-0.017148971557617188,0.01404184103012085,0.034476786851882935
1714065785338078700,9.96707861328125,-0.012141227722167969,0.011628836393356323,0.04823741316795349
1714065785347958500,9.97695849609375,-0.028402328491210938,0.016437411308288574,0.03822678327560425
1714065785357838800,9.9868388671875,-0.013795852661132812,0.0045677125453948975,0.0423893928527832
1714065785367718400,9.996718505859375,-0.01826190948486328,0.021146178245544434,0.04189297556877136
1714065785377597200,10.00659716796875,0.0008878707885742188,0.013906359672546387,0.03905057907104492
1714065785387476700,10.016476806640625,-0.006176948547363281,0.02091240882873535,0.03625562787055969
1714065785397357000,10.026357177734376,-0.00841522216796875,0.018384918570518494,0.03115302324295044
1714065785407236600,10.036236572265626,-0.0059051513671875,0.01837243139743805,0.03555229306221008
1714065785417115400,10.046115478515626,0.0036258697509765625,0.01836012303829193,0.04458656907081604
1714065785426995000,10.055994873046876,0.015349388122558594,0.020583540201187134,0.0393451452255249
1714065785436875500,10.06587548828125,0.005688667297363281,0.027478337287902832,0.04360783100128174
1714065785446755000,10.075755126953124,0.015023231506347656,0.02484138309955597,0.03367432951927185
1714065785456633600,10.085633544921874,0.02655506134033203,0.017539992928504944,0.042739927768707275
1714065785466513400,10.095513427734375,0.014354705810546875,0.0244855135679245,0.042237669229507446
1714065785476393700,10.105393798828125,0.0023593902587890625,0.024371430277824402,0.04409798979759216
1714065785486273300,10.115273193359375,-0.00001811981201171875,0.03132180869579315,0.02944791316986084
1714065785496152000,10.125152099609375,-0.0047168731689453125,0.03568337857723236,0.024340063333511353
1714065785506031600,10.135031494140625,0.08247947692871094,0.02349291741847992,0.040623873472213745
1714065785515912000,10.144911865234375,-0.003620147705078125,0.009388983249664307,0.045102864503860474
1714065785525791500,10.15479150390625,-0.0859518051147461,0.021178707480430603,0.016073375940322876
1714065785535670300,10.164670166015625,0.09911632537841797,0.004402875900268555,0.030140727758407593
1714065785545549800,10.1745498046875,-0.0649566650390625,0.021098509430885315,0.03232458233833313
1714065785555430400,10.184430419921876,-0.033267974853515625,0.009032398462295532,0.029404252767562866
1714065785565310000,10.19431005859375,0.0685262680053711,0.01129692792892456,0.03853785991668701
1714065785575188500,10.2041884765625,-0.06207275390625,0.009162843227386475,0.014685571193695068
1714065785585068300,10.214068359375,-0.028075218200683594,-0.0027043521404266357,0.02394893765449524
1714065785594948600,10.223948486328124,0.02655029296875,0.0045785605907440186,0.021405667066574097
1714065785604828200,10.233828125,-0.05155658721923828,0.01904013752937317,0.02844032645225525
1714065785614707000,10.24370703125,-0.017730712890625,0.021252170205116272,0.023349225521087646
1714065785624586500,10.25358642578125,-0.0032930374145507812,0.011775106191635132,0.027878552675247192
1714065785634466800,10.263466796875,-0.014994621276855469,0.023639485239982605,0.015856117010116577
1714065785644346400,10.273346435546875,-0.0076770782470703125,0.02094779908657074,0.03922513127326965
1714065785654225200,10.28322509765625,-0.0004749298095703125,0.009002894163131714,0.02936464548110962
1714065785664105000,10.29310498046875,-0.0051593780517578125,0.03033454716205597,0.01966845989227295
1714065785673985300,10.3029853515625,0.0019941329956054688,0.015760287642478943,0.026494592428207397
1714065785683864800,10.31286474609375,0.018456459045410156,0.015791520476341248,0.02861723303794861
1714065785693743600,10.32274365234375,0.0040378570556640625,0.02994312345981598,0.033061832189559937
1714065785703623200,10.332623046875,-0.000728607177734375,0.020202472805976868,0.037310510873794556
1714065785713503500,10.34250341796875,0.01813220977783203,0.02957652509212494,0.034544557332992554
1714065785723383000,10.352383056640624,0.010779380798339844,0.024550408124923706,0.029470503330230713
1714065785733261800,10.36226171875,0.015316009521484375,0.019612357020378113,0.03613007068634033
1714065785743141400,10.372141357421874,0.01271820068359375,0.02428784966468811,0.02855667471885681
1714065785753021700,10.382021728515625,0.0007467269897460938,0.0005163252353668213,0.03299921751022339
1714065785762901200,10.3919013671875,0.0007467269897460938,0.010099709033966064,0.018534094095230103
1714065785772780000,10.401780029296875,-0.011020660400390625,0.017287909984588623,0.02549782395362854
1714065785782659600,10.41165966796875,-0.0037593841552734375,0.02200646698474884,0.0346965491771698
1714065785792540200,10.4215400390625,0.0057315826416015625,0.007689774036407471,0.022557377815246582
1714065785802419700,10.431419677734375,-0.008473396301269531,0.014918133616447449,0.024745672941207886
1714065785812298500,10.441298583984375,-0.017737388610839844,0.0007195472717285156,0.024543285369873047
1714065785822178000,10.451177978515625,-0.024497032165527344,-0.0038256049156188965,0.012454569339752197
1714065785832058400,10.461058349609376,-0.02172374725341797,0.013011455535888672,0.012338310480117798
1714065785841938000,10.47093798828125,-0.011929512023925781,0.0036717355251312256,0.017051100730895996
1714065785851816700,10.480816650390626,-0.018777847290039062,-0.0008040070533752441,0.012268543243408203
1714065785861696300,10.4906962890625,-0.011387825012207031,0.006570190191268921,0.007562547922134399
1714065785871576600,10.50057666015625,-0.011185646057128906,0.01605267822742462,0.024125903844833374
1714065785881456400,10.510456298828124,-0.008629798889160156,0.016079023480415344,0.0074544548988342285
1714065785891335000,10.5203349609375,0.005650520324707031,0.011282116174697876,0.01695382595062256
1714065785901214700,10.530214599609375,-0.0014925003051757812,0.015977665781974792,0.01688125729560852
1714065785911095000,10.540094970703125,0.0009012222290039062,0.02307213842868805,0.023869365453720093
1714065785920974600,10.549974609375,0.01031494140625,0.02286277711391449,0.009556353092193604
1714065785930853400,10.559853271484375,0.012505531311035156,0.02736528217792511,0.025967806577682495
1714065785940733000,10.56973291015625,0.0146636962890625,0.02002178132534027,0.016328245401382446
1714065785950613200,10.57961328125,0.019134521484375,0.017509102821350098,0.02321001887321472
1714065785960492800,10.589492919921875,0.1387805938720703,-0.04173696041107178,-0.01816272735595703
1714065785970371600,10.59937158203125,0.2656888961791992,-0.20888611674308777,-0.023566067218780518
1714065785980251100,10.609251220703126,-0.5907840728759766,0.1910187304019928,0.12760215997695923
1714065785990131500,10.61913134765625,-0.4177818298339844,0.5712288618087769,0.019734293222427368
1714065786000011300,10.62901123046875,0.2137765884399414,0.3946816325187683,0.08280289173126221
1714065786009889800,10.638889892578124,-0.10995101928710938,-0.23607087135314941,-0.20180171728134155
1714065786019769600,10.64876953125,1.0544023513793945,-0.790025532245636,-0.0600416362285614
1714065786029650000,10.65864990234375,-0.013761520385742188,-0.5008915662765503,0.024437516927719116
1714065786039529500,10.668529541015625,-0.49390602111816406,0.2321511209011078,0.34071680903434753
1714065786049408300,10.678408203125,-0.42656993865966797,0.6758071780204773,0.05099400877952576
1714065786059287800,10.688287841796875,0.20931053161621094,0.4690098166465759,-0.020734459161758423
1714065786069168000,10.698168212890625,-0.07188701629638672,-0.12927430868148804,-0.05773058533668518
1714065786079047700,10.708047607421875,0.20941448211669922,-0.5950884819030762,-0.023721545934677124
1714065786088926500,10.717926513671875,0.45041656494140625,-0.5373663902282715,0.09383907914161682
1714065786098806000,10.727805908203125,-0.021251678466796875,-0.06489285826683044,-0.014669865369796753
1714065786108686600,10.7376865234375,-0.13867664337158203,0.0002707839012145996,-0.3051183819770813
1714065786118566100,10.747566162109376,-0.9693059921264648,0.365902841091156,-0.3948361575603485
1714065786128445000,10.75744482421875,0.5395145416259766,0.07931262254714966,-0.11144155263900757
1714065786138324500,10.767324462890626,0.628941535949707,-0.18193840980529785,-0.5257749557495117
1714065786148204800,10.777204833984374,-0.47191810607910156,-0.6454482674598694,-1.375915765762329
1714065786158084400,10.78708447265625,-0.3979635238647461,-0.09018447995185852,-0.02999827265739441
1714065786167963100,10.796963134765624,0.1552295684814453,0.5303694009780884,0.5254872441291809
1714065786177842700,10.8068427734375,-0.002593994140625,0.7015062570571899,0.16008657217025757
1714065786187723000,10.816722900390625,-0.685114860534668,1.4077157974243164,0.21860496699810028
1714065786197602600,10.8266025390625,1.0166893005371094,-0.11539322137832642,0.6720150113105774
1714065786207481300,10.8364814453125,-0.16100692749023438,-0.47283098101615906,0.48720914125442505
1714065786217361000,10.84636083984375,-0.11584949493408203,-0.47284308075904846,0.5284493565559387
1714065786227241500,10.856241455078125,0.599400520324707,-0.3446148633956909,0.10678380727767944
1714065786237121000,10.86612109375,-0.020910263061523438,-0.1386774480342865,-0.13043582439422607
1714065786246999800,10.875999755859375,0.2565488815307617,0.1971171498298645,0.6364427208900452
1714065786256879400,10.88587939453125,0.14560222625732422,0.08282043039798737,0.49688905477523804
1714065786266759700,10.895759765625,1.107686996459961,-0.21537691354751587,0.399502158164978
1714065786276639200,10.90563916015625,0.19391918182373047,0.025720298290252686,0.6269054412841797
1714065786286518000,10.91551806640625,-0.3517303466796875,-0.323193222284317,-0.44018644094467163
1714065786296397600,10.9253974609375,0.4765434265136719,0.7707372903823853,-1.6665716171264648
1714065786306278000,10.93527783203125,0.6560115814208984,1.7435518503189087,0.2669215202331543
1714065786316157400,10.945157470703125,0.15807056427001953,0.851900577545166,1.133158564567566
1714065786326036200,10.9550361328125,-2.884671688079834,0.3975907564163208,0.12779821455478668
1714065786335915800,10.964915771484375,-0.7186269760131836,0.39739251136779785,-0.6530141830444336
1714065786345796400,10.97479638671875,0.15246295928955078,0.19676095247268677,0.09827378392219543
1714065786355676000,10.984676025390625,0.4006071090698242,0.2054426372051239,0.7625634670257568
1714065786365554700,10.9945546875,0.28760242462158203,-0.0902683436870575,0.25928935408592224
1714065786375434200,11.004434326171875,-0.06373977661132812,-0.967375636100769,-1.1902319192886353
1714065786385314600,11.014314453125,-0.2400360107421875,-0.8007265329360962,-0.25363683700561523
1714065786395194000,11.024194091796875,1.1240272521972656,-0.32867005467414856,1.0717673301696777
1714065786405073000,11.034072998046875,-0.34766197204589844,-0.21760240197181702,1.2716114521026611
1714065786414952400,11.043952392578126,-0.38515567779541016,-0.2113611400127411,-1.3639639616012573
1714065786424832800,11.053832763671876,-0.042899131774902344,-0.31027355790138245,0.11022322624921799
1714065786434712600,11.063712646484374,-0.4369850158691406,-0.12495648860931396,0.013273738324642181
1714065786444591000,11.073591064453124,0.22780132293701172,-0.2909466028213501,-0.09055942296981812
1714065786454471000,11.083470947265624,-0.17171859741210938,-0.30521875619888306,-0.33426544070243835
1714065786464351200,11.093351318359375,-0.3765897750854492,-0.1642599254846573,-0.3405485153198242
1714065786474230800,11.103230712890625,0.24779796600341797,0.664986252784729,-0.22132810950279236
1714065786484109600,11.113109619140625,-1.3165082931518555,-0.30437055230140686,-0.003370627760887146
1714065786493989000,11.122989013671875,2.0684642791748047,0.8624898195266724,-0.38304466009140015
1714065786503869400,11.132869384765625,-0.15993118286132812,0.29506468772888184,-0.16111797094345093
1714065786513749000,11.1427490234375,0.700160026550293,0.1949484646320343,0.022359877824783325
1714065786523627800,11.152627685546875,0.9202795028686523,-0.08409711718559265,0.20990228652954102
1714065786533507300,11.16250732421875,0.8508119583129883,0.33604830503463745,0.42525267601013184
1714065786543387600,11.1723876953125,0.6382808685302734,0.46714699268341064,0.2746262848377228
1714065786553267500,11.182267333984376,0.5243158340454102,0.4899080991744995,0.18357068300247192
1714065786563146000,11.19214599609375,0.5802927017211914,0.3085957467556,0.0844825729727745
1714065786573025800,11.20202587890625,0.8009433746337891,0.026254817843437195,-0.11570656299591064
1714065786582906000,11.211906005859374,0.7655401229858398,-0.13990353047847748,-0.24991784989833832
1714065786592785700,11.22178564453125,0.8974075317382812,-0.1668863296508789,-0.15318617224693298
1714065786602664400,11.23166455078125,0.8856840133666992,-0.10243770480155945,-0.10010877251625061
1714065786612544000,11.2415439453125,0.9838895797729492,-0.08241292834281921,0.03192473575472832
1714065786622424300,11.25142431640625,1.0866813659667969,-0.10430112481117249,0.11172238737344742
1714065786632303900,11.261303955078125,1.1988258361816406,-0.0275706946849823,0.08233246207237244
1714065786642182700,11.2711826171875,1.2176227569580078,-0.040873169898986816,0.019592687487602234
1714065786652062200,11.281062255859375,1.2937488555908203,0.039809033274650574,0.04853231459856033
1714065786661942800,11.29094287109375,1.283757209777832,0.11634567379951477,0.038360193371772766
1714065786671822300,11.300822265625,1.1950302124023438,0.041163623332977295,-0.16426466405391693
1714065786681701000,11.310701171875,1.154327392578125,0.09204258024692535,-0.1349094957113266
1714065786691580700,11.32058056640625,1.1925468444824219,0.153802752494812,-0.1616123616695404
1714065786701461000,11.3304609375,1.1924619674682617,0.15249720215797424,-0.1588897556066513
1714065786711340500,11.340340576171876,1.2162399291992188,0.17363086342811584,-0.1195542961359024
1714065786721219300,11.35021923828125,1.2279949188232422,0.13784079253673553,-0.04551240801811218
1714065786731099000,11.360098876953124,1.2206087112426758,0.13599957525730133,0.030542105436325073
1714065786740979200,11.369979248046874,1.1941461563110352,0.19892518222332,0.1023930013179779
1714065786750858800,11.379858642578125,1.1558294296264648,0.19759540259838104,0.08418960869312286
1714065786760737500,11.389737548828125,1.2274742126464844,0.1318933367729187,-0.021553531289100647
1714065786770617000,11.3996171875,1.3228168487548828,0.07323479652404785,-0.14106667041778564
1714065786780497700,11.40949755859375,1.3677453994750977,-0.08638167381286621,-0.23406359553337097
1714065786790377200,11.419377197265625,1.402968406677246,-0.18735072016716003,-0.3332490921020508
1714065786800256000,11.429256103515625,1.3879165649414062,-0.2394084632396698,-0.5239675641059875
1714065786810135600,11.439135498046875,1.313197135925293,-0.28267669677734375,-0.6212788820266724
1714065786820015900,11.449015869140625,1.3842782974243164,-0.26823779940605164,-0.6653406620025635
1714065786829895400,11.4588955078125,1.4550848007202148,-0.2111542820930481,-0.5869144797325134
1714065786839774200,11.468774169921875,1.5518665313720703,-0.1523532271385193,-0.3622995913028717
1714065786849653800,11.47865380859375,1.5647249221801758,-0.1032860279083252,0.03188106790184975
1714065786859534000,11.4885341796875,1.606114387512207,0.046035826206207275,0.3354370892047882
1714065786869414000,11.498413818359374,1.587667465209961,0.10326209664344788,-0.04275137186050415
1714065786879292400,11.50829248046875,1.4260225296020508,0.18021124601364136,-0.09967944771051407
1714065786889172000,11.518171875,1.233846664428711,0.24250304698944092,-0.09848768264055252
1714065786899052500,11.528052490234375,1.0566034317016602,0.25235992670059204,-0.12529940903186798
1714065786908932000,11.53793212890625,0.9873828887939453,0.23118987679481506,-0.18495091795921326
1714065786918811000,11.547810791015625,0.9375772476196289,0.2320026457309723,-0.21551650762557983
1714065786928690400,11.5576904296875,0.9692287445068359,0.19243544340133667,-0.3008679449558258
1714065786938570800,11.56757080078125,0.9555435180664062,0.09050953388214111,-0.3092549741268158
1714065786948450300,11.5774501953125,0.9803848266601562,0.03006654977798462,-0.2226170152425766
1714065786958329000,11.5873291015625,0.9342584609985352,0.01363915205001831,-0.13159231841564178
1714065786968208600,11.597208740234375,0.8207073211669922,0.021435320377349854,-0.047956764698028564
1714065786978089000,11.6070888671875,0.7256240844726562,0.04835855960845947,-0.0022158287465572357
1714065786987968800,11.61696875,0.5781183242797852,-0.030298709869384766,0.015164390206336975
1714065786997847300,11.626847412109376,0.42383384704589844,-0.09233373403549194,0.04135334491729736
1714065787007727000,11.63672705078125,0.21580028533935547,0.021911561489105225,-0.41448622941970825
1714065787017607400,11.646607421875,-0.1486043930053711,-0.12982457876205444,-0.08638052642345428
1714065787027487000,11.656487060546874,-0.19141674041748047,-0.03249937295913696,-0.17213459312915802
1714065787037365800,11.66636572265625,-0.6124515533447266,-0.047382652759552,-0.10946805775165558
1714065787047245300,11.676245361328125,-0.7815895080566406,0.003428041934967041,-0.14329710602760315
1714065787057125600,11.686125732421875,-1.0655784606933594,0.09316891431808472,-0.041542887687683105
1714065787067005200,11.696005126953125,-1.2734079360961914,0.236655592918396,0.05313652753829956
1714065787076884000,11.705884033203125,-1.5045700073242188,0.34368371963500977,0.09891784191131592
1714065787086763500,11.715763427734375,-1.603856086730957,0.35579344630241394,0.1636807769536972
1714065787096644000,11.72564404296875,-1.9655303955078125,0.3605446219444275,0.2618107199668884
1714065787106523600,11.735523681640625,-2.003864288330078,0.41956350207328796,0.3293253481388092
1714065787116402200,11.745402099609375,-2.2640323638916016,0.5267107486724854,0.5604616403579712
1714065787126282000,11.755281982421875,-2.2034096717834473,0.5327924489974976,0.7313872575759888
1714065787136162300,11.765162353515626,-2.173827648162842,0.4909818470478058,0.9038562774658203
1714065787146041900,11.775041748046876,-2.0008955001831055,0.46634218096733093,0.8899649381637573
1714065787155920600,11.784920654296876,-1.8856019973754883,0.2703338861465454,0.8133399486541748
1714065787165800200,11.79480029296875,-1.7346067428588867,0.17592620849609375,0.5458285808563232
1714065787175680500,11.804680419921874,-1.9607200622558594,0.21595555543899536,0.41495102643966675
1714065787185560000,11.81456005859375,-2.063596725463867,0.12014544010162354,0.282235711812973
1714065787195438800,11.82443896484375,-1.9861831665039062,0.03413712978363037,0.2648385167121887
1714065787205318400,11.834318359375,-1.7959785461425781,-0.17092657089233398,0.35253530740737915
1714065787215199000,11.844198974609375,-1.6464872360229492,-0.2330566644668579,0.2979387640953064
1714065787225078500,11.85407861328125,-1.4020442962646484,-0.17562711238861084,0.23577871918678284
1714065787234957000,11.86395703125,-1.147024154663086,-0.23175978660583496,0.14591360092163086
1714065787244836900,11.8738369140625,-0.9296054840087891,-0.24147498607635498,0.1935948133468628
1714065787254717200,11.88371728515625,-0.7308979034423828,-0.34801554679870605,0.326840341091156
1714065787264596700,11.8935966796875,-0.6154613494873047,-0.5946605205535889,0.1395854353904724
1714065787274475500,11.9034755859375,-0.5211515426635742,-0.606540322303772,0.10206812620162964
1714065787284355000,11.91335498046875,-0.4408912658691406,-0.6690996885299683,0.005118131637573242
1714065787294235400,11.9232353515625,-0.5129899978637695,-0.6400372982025146,-0.154161274433136
1714065787304115000,11.933114990234374,-0.6173334121704102,-0.49397850036621094,-0.19624561071395874
1714065787313993700,11.94299365234375,-0.6149559020996094,-0.16008985042572021,-0.04441213607788086
1714065787323873300,11.952873291015624,-0.8399696350097656,0.14194059371948242,0.16548305749893188
1714065787333753600,11.962753662109375,-1.0024795532226562,0.3021169900894165,0.22862592339515686
1714065787343633400,11.97263330078125,-1.1620721817016602,0.25576239824295044,0.14839708805084229
1714065787353512000,11.982511962890625,-1.1586055755615234,0.3219233751296997,0.08808904886245728
1714065787363391700,11.992391845703125,-1.1308135986328125,0.3392738699913025,0.20150992274284363
1714065787373272000,12.00227197265625,-0.9379148483276367,0.2736929655075073,0.2786042094230652
1714065787383151600,12.012151611328125,-0.7928886413574219,0.2613726854324341,0.3145407438278198
1714065787393030400,12.022030517578125,-0.6431713104248047,0.11008358001708984,0.20647820830345154
1714065787402910000,12.031909912109375,-0.48877525329589844,0.08197301626205444,0.19926029443740845
1714065787412790300,12.041790283203126,-0.4395017623901367,-0.02328503131866455,0.16157066822052002
1714065787422669800,12.051669921875,-0.5212764739990234,0.012902557849884033,0.08671623468399048
1714065787432548600,12.061548583984376,-0.5092935562133789,0.009060800075531006,0.0008053481578826904
1714065787442428200,12.07142822265625,-0.5376005172729492,-0.04141592979431152,-0.11955156922340393
1714065787452308500,12.08130859375,-0.3075094223022461,0.031878262758255005,-0.17537906765937805
1714065787462188300,12.091188232421874,-1.3334331512451172,0.2940986454486847,-0.05522322654724121
1714065787472066800,12.10106689453125,-1.0283641815185547,0.435280442237854,0.09332939982414246
1714065787481946600,12.110946533203125,-1.0291366577148438,0.4074203073978424,0.1519216001033783
1714065787491827000,12.120826904296875,-0.7165956497192383,0.4625697135925293,0.1304674744606018
1714065787501706500,12.13070654296875,-0.7340126037597656,0.4550987184047699,0.30257123708724976
1714065787511585300,12.140585205078125,-0.5266380310058594,0.21533982455730438,0.09824201464653015
