time,seconds_elapsed,z,y,x
1714065715773761800,0.15676171875,0.062835693359375,0.021209485828876495,-0.047780126333236694
1714065715783841800,0.166841796875,0.07500267028808594,0.03391047567129135,-0.07632783055305481
1714065715793921300,0.17692138671875,-0.005759239196777344,0.04350024834275246,-0.0664554238319397
1714065715804001000,0.1870009765625,-0.07053184509277344,0.009240087121725082,-0.03638726472854614
1714065715814080300,0.197080322265625,-0.08001995086669922,-0.024282723665237427,0.017319440841674805
1714065715824159700,0.20715966796875,-0.02746295928955078,-0.02213461324572563,0.007460638880729675
1714065715834238700,0.21723876953125,0.0700845718383789,0.0018454007804393768,-0.01054200530052185
1714065715844318000,0.22731787109375,0.0832834243774414,0.035408731549978256,-0.056561172008514404
1714065715854397000,0.23739697265625,0.03094196319580078,0.04683234170079231,-0.057426661252975464
1714065715864476000,0.247475830078125,-0.06777381896972656,0.019462041556835175,-0.01779209077358246
1714065715874555000,0.257554931640625,-0.08210086822509766,-0.03345112130045891,0.006011664867401123
1714065715884633900,0.2676337890625,-0.03695964813232422,-0.04047529399394989,0.008168742060661316
1714065715894712600,0.277712646484375,0.0604095458984375,-0.004163689911365509,-0.0011313557624816895
1714065715904791300,0.287791259765625,0.08260917663574219,0.05092926695942879,-0.02367192506790161
1714065715914870000,0.2978701171875,0.05828380584716797,0.055643051862716675,-0.03621760010719299
1714065715924948700,0.30794873046875,-0.040434837341308594,0.01675693318247795,-0.016115352511405945
1714065715935027500,0.31802734375,-0.0708761215209961,-0.03424324095249176,0.003118768334388733
1714065715945106000,0.32810595703125,-0.04506206512451172,-0.05108638107776642,0.010097205638885498
1714065715955184600,0.3381845703125,0.03723430633544922,-0.025809358805418015,0.010035201907157898
1714065715965263000,0.34826318359375,0.08426475524902344,0.04448166489601135,-0.008570641279220581
1714065715975305000,0.358304931640625,0.07663440704345703,0.054610006511211395,-0.021907702088356018
1714065715985184000,0.36818408203125,-0.009228706359863281,0.0205388106405735,-0.007078126072883606
1714065715995063600,0.3780634765625,-0.0714120864868164,-0.012372191995382309,-0.006637051701545715
1714065716004944100,0.387944091796875,-0.06911468505859375,-0.039603691548109055,0.010117292404174805
1714065716014824000,0.397823974609375,0.02117156982421875,-0.012681983411312103,0.012442797422409058
1714065716024703000,0.407702880859375,0.08552932739257812,0.03198391944169998,-0.008622050285339355
1714065716034582800,0.417582763671875,0.099273681640625,0.04283197224140167,-0.02198699116706848
1714065716044463400,0.42746337890625,0.012707710266113281,0.018406942486763,-0.004872247576713562
1714065716054343200,0.43734326171875,-0.06911659240722656,-0.009864859282970428,-0.00674024224281311
1714065716064222000,0.447221923828125,-0.060268402099609375,-0.030272971838712692,0.0054128170013427734
1714065716074101800,0.457101806640625,-0.00507354736328125,-0.024524148553609848,0.01025669276714325
1714065716083982300,0.466982421875,0.07202911376953125,0.013601124286651611,0.00798538327217102
1714065716093862100,0.476862060546875,0.10757255554199219,0.05078217759728432,-0.017683565616607666
1714065716103741200,0.4867412109375,0.03720855712890625,0.04270980507135391,-0.014708995819091797
1714065716113621000,0.49662109375,-0.045479774475097656,0.009146962314844131,-0.0024655908346176147
1714065716123501600,0.50650146484375,-0.0771646499633789,-0.03298377990722656,0.025860637426376343
1714065716133381400,0.51638134765625,-0.030961990356445312,-0.03908168151974678,0.018462181091308594
1714065716143260200,0.52626025390625,0.07506275177001953,0.0018732808530330658,-0.005149096250534058
1714065716153140000,0.536139892578125,0.11089801788330078,0.05587354674935341,-0.007171124219894409
1714065716163020500,0.5460205078125,0.056984901428222656,0.04548604041337967,-0.011496588587760925
1714065716172900400,0.555900390625,-0.02859973907470703,0.007204871624708176,-0.011048689484596252
1714065716182779400,0.565779296875,-0.0772705078125,-0.023256227374076843,0.00814715027809143
1714065716192659200,0.5756591796875,-0.04053783416748047,-0.04138672724366188,0.005964398384094238
1714065716202539800,0.585539794921875,0.049445152282714844,-0.016811553388834,0.010750353336334229
1714065716212419600,0.595419677734375,0.11188983917236328,0.04003939777612686,-0.003454044461250305
1714065716222298400,0.60529833984375,0.08393478393554688,0.053551819175481796,-0.0055290162563323975
1714065716232178200,0.61517822265625,-0.006915092468261719,0.019837897270917892,-0.007567480206489563
1714065716242059000,0.62505908203125,-0.06555938720703125,-0.010905679315328598,0.014052391052246094
1714065716251938600,0.6349384765625,-0.05263710021972656,-0.040985722094774246,0.02106451988220215
1714065716261817600,0.644817626953125,0.03060626983642578,-0.01174876093864441,0.013847723603248596
1714065716271697400,0.654697509765625,0.09830665588378906,0.023920752108097076,0.0020540207624435425
1714065716281578000,0.664577880859375,0.0942831039428711,0.049576811492443085,-0.0024781227111816406
1714065716291457800,0.674457763671875,0.015020370483398438,0.04186070337891579,-0.004699587821960449
1714065716301336600,0.684336669921875,-0.06056785583496094,0.003668691962957382,-0.0020572543144226074
1714065716311216400,0.69421630859375,-0.06427383422851562,-0.0337664969265461,0.012429893016815186
1714065716321097200,0.70409716796875,0.012127876281738281,-0.014195334166288376,0.021848827600479126
1714065716330976800,0.713976806640625,0.07783985137939453,0.009757991880178452,0.0028603971004486084
1714065716340855800,0.723855712890625,0.10949420928955078,0.05449986085295677,-0.0015679895877838135
1714065716350735600,0.733735595703125,0.025269508361816406,0.04199537634849548,-0.0013324767351150513
1714065716360616200,0.7436162109375,-0.06461620330810547,0.0061573609709739685,-0.0034550726413726807
1714065716370496000,0.75349609375,-0.0682516098022461,-0.04073600098490715,-0.0031881332397460938
1714065716380375000,0.763375,-0.02238941192626953,-0.03976393863558769,0.004136919975280762
1714065716390254800,0.7732548828125,0.08156394958496094,0.010509740561246872,0.013694524765014648
1714065716400135400,0.783135498046875,0.10845375061035156,0.041113968938589096,-0.000567898154258728
1714065716410015000,0.793014892578125,0.05484962463378906,0.05237456411123276,0.006713554263114929
1714065716419894000,0.80289404296875,-0.03788185119628906,0.011655140668153763,-0.0002515465021133423
1714065716429773800,0.81277392578125,-0.07021236419677734,-0.03073977306485176,0.0023162364959716797
1714065716439654400,0.822654296875,-0.03137779235839844,-0.022992003709077835,0.00719587504863739
1714065716449534200,0.8325341796875,0.06566333770751953,-0.0012462250888347626,0.00022271275520324707
1714065716459413200,0.842413330078125,0.10458564758300781,0.0413229763507843,-0.0019253939390182495
1714065716469293000,0.85229296875,0.07929706573486328,0.05728850141167641,-0.00403808057308197
1714065716479173600,0.862173583984375,-0.02325916290283203,0.016485311090946198,0.010364323854446411
1714065716489053400,0.872053466796875,-0.07231426239013672,-0.02116328850388527,0.003338441252708435
1714065716498932200,0.88193212890625,-0.056987762451171875,-0.02993408963084221,0.012908995151519775
1714065716508812000,0.89181201171875,0.033416748046875,-0.019843563437461853,0.003486454486846924
1714065716518692600,0.901692626953125,0.11525344848632812,0.027745969593524933,0.008346199989318848
1714065716528572400,0.911572509765625,0.09684944152832031,0.06276944279670715,0.0060627758502960205
1714065716538451500,0.921451416015625,0.0010633468627929688,0.040710415691137314,0.0038169920444488525
1714065716548331300,0.931331298828125,-0.07193756103515625,0.00006705522537231445,-0.0007455348968505859
1714065716558211800,0.9412119140625,-0.07074260711669922,-0.028009526431560516,0.0041847676038742065
1714065716568091600,0.951091552734375,0.012829780578613281,-0.015596836805343628,0.023158028721809387
1714065716577970400,0.960970458984375,0.0832376480102539,0.020150959491729736,0.018273085355758667
1714065716587850200,0.970850341796875,0.10303497314453125,0.06001138314604759,-0.003009781241416931
1714065716597731000,0.98073095703125,0.04245948791503906,0.04976934939622879,0.001958310604095459
1714065716607610600,0.990610595703125,-0.05948448181152344,-0.0026775598526000977,0.004607856273651123
1714065716617489700,1.00048974609375,-0.0679168701171875,-0.04236089810729027,0.018984168767929077
1714065716627369500,1.010369384765625,-0.01264190673828125,-0.02970895543694496,0.025939837098121643
1714065716637250000,1.02025,0.08879566192626953,0.015690870583057404,0.009237632155418396
1714065716647129900,1.0301298828125,0.11556243896484375,0.04373811185359955,0.006938546895980835
1714065716657009000,1.0400087890625,0.05713081359863281,0.04789251834154129,0.007150888442993164
1714065716666888400,1.049888427734375,-0.045058250427246094,0.014310561120510101,-0.004411220550537109
1714065716676769300,1.059769287109375,-0.07256126403808594,-0.01871175318956375,0.005288645625114441
1714065716686648800,1.06964892578125,-0.043105125427246094,-0.03235012665390968,0.012472614645957947
1714065716696528000,1.07952783203125,0.06354808807373047,0.0014412179589271545,0.02189101278781891
1714065716706407700,1.08940771484375,0.11427783966064453,0.034550897777080536,0.009964719414710999
1714065716716288300,1.099288330078125,0.06528568267822266,0.052981697022914886,-0.004116520285606384
1714065716726168000,1.10916796875,-0.022912025451660156,0.03108593076467514,-0.010900914669036865
1714065716736047000,1.119047119140625,-0.07197380065917969,-0.021049518138170242,0.008442401885986328
1714065716745927000,1.128927001953125,-0.051944732666015625,-0.03935728222131729,0.013219654560089111
1714065716755807500,1.138807373046875,0.04073047637939453,-0.014865890145301819,0.015563085675239563
1714065716765687300,1.148687255859375,0.10596752166748047,0.0420575886964798,0.013040587306022644
1714065716775566000,1.158566162109375,0.09713459014892578,0.06260091811418533,0.005970224738121033
1714065716785446000,1.16844580078125,-0.012781143188476562,0.04054483026266098,-0.0009822547435760498
1714065716795326700,1.17832666015625,-0.07848930358886719,-0.011748205870389938,0.013368949294090271
1714065716805206300,1.188206298828125,-0.06541252136230469,-0.037273555994033813,0.018064111471176147
1714065716815085300,1.198085205078125,0.020422935485839844,-0.012816864997148514,0.02032679319381714
1714065716824965000,1.207965087890625,0.08835124969482422,0.029947295784950256,0.00842660665512085
1714065716834845700,1.217845703125,0.11041641235351562,0.0556359626352787,-0.0009205639362335205
1714065716844725500,1.2277255859375,0.012050628662109375,0.03840439021587372,-0.0030497610569000244
1714065716854604500,1.2376044921875,-0.05407238006591797,-0.006790377199649811,0.018398478627204895
1714065716864484000,1.247484130859375,-0.08142566680908203,-0.041696567088365555,0.020655661821365356
1714065716874365000,1.257364990234375,-0.000030517578125,-0.01716609299182892,0.022875234484672546
1714065716884244700,1.26724462890625,0.08000946044921875,0.01389959454536438,0.02270360291004181
1714065716894123500,1.27712353515625,0.09514904022216797,0.05621851608157158,0.010882377624511719
1714065716904003300,1.28700341796875,0.034705162048339844,0.043685637414455414,0.0038480758666992188
1714065716913884000,1.2968837890625,-0.05298423767089844,0.007819700986146927,0.001757994294166565
1714065716923763700,1.306763671875,-0.07094097137451172,-0.029802676290273666,0.01618209481239319
1714065716933642800,1.316642822265625,-0.029743194580078125,-0.02194983884692192,0.025657325983047485
1714065716943522600,1.3265224609375,0.06726932525634766,0.011668331921100616,0.008959963917732239
1714065716953403100,1.336403076171875,0.10616588592529297,0.046961914747953415,0.009020313620567322
1714065716963283000,1.346282958984375,0.05259895324707031,0.05329831689596176,0.006844028830528259
1714065716973162000,1.356161865234375,-0.051868438720703125,0.01256374642252922,0.0070582181215286255
1714065716983041500,1.36604150390625,-0.07925796508789062,-0.029846064746379852,0.018921256065368652
1714065716992922400,1.37592236328125,-0.04969024658203125,-0.03388195484876633,0.02116978168487549
1714065717002802000,1.385802001953125,0.045302391052246094,-0.00018345937132835388,0.013964042067527771
1714065717012681000,1.395680908203125,0.10575294494628906,0.0376618392765522,0.016295164823532104
1714065717022560800,1.405560791015625,0.07338333129882812,0.0513344369828701,0.0021080970764160156
1714065717032441300,1.41544140625,-0.038491249084472656,0.031820427626371384,-0.00007149577140808105
1714065717042321200,1.425321044921875,-0.0802297592163086,-0.020327143371105194,0.004847809672355652
1714065717052200200,1.4352001953125,-0.062417030334472656,-0.03864685818552971,0.016747668385505676
1714065717062080000,1.445080078125,0.0186614990234375,-0.02134830132126808,0.02374081313610077
1714065717071960600,1.454960693359375,0.09368133544921875,0.03332915157079697,0.009429633617401123
1714065717081840000,1.464840087890625,0.08269786834716797,0.05178234726190567,0.011954963207244873
1714065717091719200,1.47471923828125,-0.010498046875,0.027433857321739197,0.002548620104789734
1714065717101599000,1.484598876953125,-0.0785980224609375,-0.005925595760345459,0.009778469800949097
1714065717111479600,1.4944794921875,-0.08435535430908203,-0.03142930939793587,0.01453360915184021
1714065717121359400,1.504359375,0.01827526092529297,-0.01884084939956665,0.023917853832244873
1714065717131238400,1.51423828125,0.07682323455810547,0.026377957314252853,0.019020482897758484
1714065717141118200,1.5241181640625,0.09908103942871094,0.06142451986670494,0.0024342089891433716
1714065717150998800,1.533998779296875,0.01738262176513672,0.02996942400932312,0.01202063262462616
1714065717160878600,1.543878662109375,-0.060599327087402344,0.006103109568357468,0.012030035257339478
1714065717170757600,1.553757568359375,-0.08313465118408203,-0.03384485840797424,0.01674763858318329
1714065717180637200,1.56363720703125,-0.01348114013671875,-0.018861927092075348,0.026095017790794373
1714065717190518000,1.57351806640625,0.06678199768066406,0.007523722946643829,0.028224021196365356
1714065717200397600,1.5833974609375,0.10804080963134766,0.049948982894420624,0.00206717848777771
1714065717210276600,1.593276611328125,0.04267311096191406,0.04458129405975342,0.0022428929805755615
1714065717220156400,1.603156494140625,-0.05691814422607422,0.011173300445079803,0.002415284514427185
1714065717230037000,1.613037109375,-0.08658027648925781,-0.01696953922510147,0.012120217084884644
1714065717239916800,1.622916748046875,-0.040411949157714844,-0.025930285453796387,0.016836732625961304
1714065717249795800,1.6327958984375,0.04971790313720703,-0.0017810612916946411,0.0238284170627594
1714065717259675600,1.642675537109375,0.100677490234375,0.03844510391354561,0.007161632180213928
1714065717269556200,1.65255615234375,0.07074642181396484,0.0568130686879158,0.004897862672805786
1714065717279436000,1.66243603515625,-0.038730621337890625,0.02072843909263611,0.00031763315200805664
1714065717289314800,1.672314697265625,-0.08517265319824219,-0.024171635508537292,0.002876296639442444
1714065717299194600,1.682194580078125,-0.06492328643798828,-0.03301044553518295,0.01480911672115326
1714065717309075500,1.692075439453125,0.0279693603515625,0.0006735958158969879,0.024188831448554993
1714065717318955000,1.701955078125,0.1004791259765625,0.029087871313095093,0.016932830214500427
1714065717328834000,1.711833984375,0.0823211669921875,0.05220161750912666,0.0003809928894042969
1714065717338713900,1.7217138671875,-0.008514404296875,0.027846157550811768,-0.0017697513103485107
1714065717348594400,1.731594482421875,-0.07429313659667969,-0.01258271187543869,0.014948934316635132
1714065717358474200,1.74147412109375,-0.07776832580566406,-0.033385634422302246,0.02432633936405182
1714065717368353300,1.751353271484375,0.003566741943359375,-0.018410325050354004,0.019422218203544617
1714065717378233000,1.761233154296875,0.08119392395019531,0.03150978311896324,0.012127101421356201
1714065717388113700,1.77111376953125,0.09160709381103516,0.054701752960681915,0.0074263811111450195
1714065717397993500,1.780993408203125,0.010034561157226562,0.03512974828481674,-0.0019039511680603027
1714065717407872300,1.790872314453125,-0.0678262710571289,0.013650253415107727,-0.001662418246269226
1714065717417752000,1.800751953125,-0.08788681030273438,-0.0334860123693943,0.015054449439048767
1714065717427633000,1.8106328125,-0.01579761505126953,-0.02569206804037094,0.024311915040016174
1714065717437512400,1.820512451171875,0.06921195983886719,0.007870033383369446,0.014699682593345642
1714065717447391500,1.8303916015625,0.09159660339355469,0.05499793961644173,0.00995604693889618
1714065717457271300,1.840271240234375,0.05004405975341797,0.04483968764543533,0.0007017552852630615
1714065717467152000,1.85015185546875,-0.05202293395996094,0.0018920637667179108,-0.0038084834814071655
1714065717477031700,1.86003173828125,-0.08647346496582031,-0.030923087149858475,0.008235782384872437
1714065717486910700,1.86991064453125,-0.037952423095703125,-0.03246814385056496,0.022433459758758545
1714065717496790300,1.879790283203125,0.047428131103515625,-0.0011473000049591064,0.017560958862304688
1714065717506671000,1.889671142578125,0.10548782348632812,0.04613092914223671,0.015123888850212097
1714065717516551000,1.899551025390625,0.061348915100097656,0.06672506034374237,0.010491862893104553
1714065717526429700,1.9094296875,-0.02913665771484375,0.01635006070137024,0.0011100322008132935
1714065717536309500,1.9193095703125,-0.08044719696044922,-0.021414421498775482,0.003655552864074707
1714065717546190000,1.929190185546875,-0.05085945129394531,-0.04195144772529602,0.015575453639030457
1714065717556070000,1.93906982421875,0.03473377227783203,-0.005645539611577988,0.027296632528305054
1714065717565949000,1.948948974609375,0.10477733612060547,0.03699735179543495,0.00821828842163086
1714065717575828700,1.958828857421875,0.07948493957519531,0.05774368718266487,0.0012285560369491577
1714065717585709300,1.968709228515625,-0.006594657897949219,0.035770684480667114,-0.005645036697387695
1714065717595589000,1.978589111328125,-0.08182144165039062,-0.014088403433561325,0.013373836874961853
1714065717605468200,1.98846826171875,-0.06633663177490234,-0.03239526227116585,0.018069550395011902
1714065717615348000,1.998347900390625,0.010099411010742188,-0.015200790017843246,0.022686585783958435
1714065717625228500,2.008228515625,0.07584476470947266,0.03231171518564224,0.020164117217063904
1714065717635108000,2.018108154296875,0.08634757995605469,0.060198746621608734,0.012975305318832397
1714065717644987100,2.027987060546875,0.016633033752441406,0.05218944326043129,-0.008218884468078613
1714065717654867000,2.037866943359375,-0.0707540512084961,-0.002651691436767578,0.008607357740402222
1714065717664747500,2.04774755859375,-0.08841228485107422,-0.028328407555818558,0.020444750785827637
1714065717674627300,2.05762744140625,-0.021026611328125,-0.02062040939927101,0.022787049412727356
1714065717684506400,2.06750634765625,0.08525943756103516,0.017565619200468063,0.022617056965827942
1714065717694386200,2.07738623046875,0.09560585021972656,0.048052627593278885,0.010678961873054504
1714065717704266800,2.087266845703125,0.03986167907714844,0.052135393023490906,0.0036482810974121094
1714065717714146600,2.097146484375,-0.052618980407714844,0.009066149592399597,-0.00797361135482788
1714065717724025600,2.107025634765625,-0.08470535278320312,-0.0403478667140007,0.020619511604309082
1714065717733905400,2.116905517578125,-0.022088050842285156,-0.02537500113248825,0.015777304768562317
1714065717743786000,2.126785888671875,0.06538105010986328,0.005827691406011581,0.01101580262184143
1714065717753665500,2.13666552734375,0.11372566223144531,0.04580657184123993,0.00880691409111023
1714065717763544600,2.146544677734375,0.062384605407714844,0.05698935315012932,0.0160512775182724
1714065717773424400,2.15642431640625,-0.042243003845214844,0.027964457869529724,0.004222676157951355
1714065717783305000,2.166304931640625,-0.08862686157226562,-0.021764472126960754,0.0020080357789993286
1714065717793184800,2.176184814453125,-0.04477691650390625,-0.03770586475729942,0.030434802174568176
1714065717803063800,2.186063720703125,0.04307079315185547,-0.008533231914043427,0.030137404799461365
1714065717812943600,2.195943603515625,0.09884929656982422,0.04593074694275856,0.015719816088676453
1714065717822824200,2.20582421875,0.0807180404663086,0.05946570634841919,0.010959342122077942
1714065717832704000,2.2157041015625,-0.02892589569091797,0.020980875939130783,-0.0006652474403381348
1714065717842582800,2.225582763671875,-0.08965778350830078,-0.02392328903079033,0.016035139560699463
1714065717852462600,2.235462646484375,-0.06933403015136719,-0.027939029037952423,0.02774876356124878
1714065717862343400,2.245343505859375,0.01656818389892578,-0.00363752618432045,0.03220456838607788
1714065717872223200,2.25522314453125,0.10103893280029297,0.03426552191376686,0.0036273151636123657
1714065717882102000,2.26510205078125,0.089935302734375,0.057411618530750275,0.008485168218612671
1714065717891981800,2.27498193359375,-0.012799263000488281,0.03296942263841629,0.0038452893495559692
1714065717901862400,2.2848623046875,-0.0785064697265625,-0.00978032872080803,0.008699566125869751
1714065717911742200,2.2947421875,-0.0889739990234375,-0.03769240528345108,0.01818127930164337
1714065717921621200,2.304621337890625,0.006671905517578125,-0.022645123302936554,0.029859110713005066
1714065717931501000,2.3145009765625,0.0748291015625,0.01792890578508377,0.02721714973449707
1714065717941381600,2.324381591796875,0.10182762145996094,0.0625351220369339,0.010494083166122437
1714065717951261400,2.334261474609375,0.013022422790527344,0.03341779112815857,0.01288333535194397
1714065717961140200,2.34414013671875,-0.06724166870117188,0.0024315565824508667,0.0034617334604263306
1714065717971020000,2.35402001953125,-0.07318878173828125,-0.03039248287677765,0.017857849597930908
1714065717980900900,2.36390087890625,-0.024888992309570312,-0.013231266289949417,0.024832725524902344
1714065717990780400,2.373780517578125,0.07204437255859375,0.013062585145235062,0.019919931888580322
1714065718000659500,2.383659423828125,0.10850715637207031,0.05068538337945938,0.0009646564722061157
1714065718010539300,2.393539306640625,0.04313182830810547,0.04295143485069275,0.010575741529464722
1714065718020419800,2.403419921875,-0.04234123229980469,0.014160532504320145,0.010609462857246399
1714065718030299600,2.413299560546875,-0.08872318267822266,-0.02356729656457901,0.020059391856193542
1714065718040178700,2.4231787109375,-0.042519569396972656,-0.032297369092702866,0.029351770877838135
1714065718050058500,2.43305859375,0.05470561981201172,-0.0009811632335186005,0.010357975959777832
1714065718059939000,2.44293896484375,0.10087394714355469,0.0486486554145813,-0.003729879856109619
1714065718069819000,2.45281884765625,0.06623077392578125,0.05978411063551903,0.0036048293113708496
1714065718079698000,2.462697998046875,-0.03610706329345703,0.021295905113220215,0.003754720091819763
1714065718089577500,2.472577392578125,-0.07788753509521484,-0.01643216982483864,0.011083424091339111
1714065718099458300,2.482458251953125,-0.06717777252197266,-0.029989462345838547,0.025233864784240723
1714065718109337900,2.492337890625,0.03516864776611328,-0.010480750352144241,0.027377426624298096
1714065718119217000,2.502216796875,0.10285091400146484,0.03695313259959221,0.020068451762199402
1714065718129096700,2.5120966796875,0.0870065689086914,0.05534614995121956,0.005937486886978149
1714065718138977300,2.521977294921875,-0.02274322509765625,0.03340941667556763,0.0014593005180358887
1714065718148857000,2.531857177734375,-0.0882863998413086,-0.013937298208475113,0.003999173641204834
1714065718158736100,2.541736083984375,-0.08681964874267578,-0.027536168694496155,0.02533024549484253
1714065718168616000,2.551615966796875,0.020562171936035156,-0.012658089399337769,0.02982640266418457
1714065718178496500,2.56149658203125,0.0955495834350586,0.02551405131816864,0.015414074063301086
1714065718188376300,2.571376220703125,0.07041168212890625,0.06516678631305695,0.008304551243782043
1714065718198255000,2.581255126953125,-0.0013914108276367188,0.040715914219617844,-0.0010410845279693604
1714065718208135000,2.591135009765625,-0.09083175659179688,-0.009225472807884216,-0.0031679272651672363
1714065718218015700,2.601015625,-0.08932209014892578,-0.037146732211112976,0.011220037937164307
1714065718227895300,2.610895263671875,-0.003086090087890625,-0.026935525238513947,0.023013964295387268
1714065718237774300,2.6207744140625,0.06994152069091797,0.023126814514398575,0.025194525718688965
1714065718247654100,2.630654052734375,0.09466934204101562,0.05352124199271202,0.003796786069869995
1714065718257534700,2.64053466796875,0.02481555938720703,0.043387770652770996,0.00629773736000061
1714065718267414500,2.65041455078125,-0.08154010772705078,0.00034568458795547485,0.004048570990562439
1714065718277293600,2.66029345703125,-0.08960247039794922,-0.02302670106291771,0.020670443773269653
1714065718287173400,2.67017333984375,-0.024550437927246094,-0.02941155433654785,0.02289007604122162
1714065718297054000,2.680053955078125,0.06531620025634766,0.006566919386386871,0.022599831223487854
1714065718306933500,2.68993359375,0.10189056396484375,0.051362525671720505,0.015370547771453857
1714065718316812500,2.6998125,0.050749778747558594,0.05527147650718689,-0.00821763277053833
1714065718326692400,2.7096923828125,-0.051329612731933594,0.005089402198791504,0.0015457123517990112
1714065718336573000,2.719572998046875,-0.09756278991699219,-0.025305889546871185,0.008792564272880554
1714065718346452700,2.72945263671875,-0.051212310791015625,-0.022235900163650513,0.030043751001358032
1714065718356331800,2.739331787109375,0.03909587860107422,-0.005210652947425842,0.018100664019584656
1714065718366211600,2.749211669921875,0.1043548583984375,0.03507285937666893,0.018127650022506714
1714065718376092200,2.759092041015625,0.06965351104736328,0.05349724367260933,0.0015561580657958984
1714065718385972000,2.768971923828125,-0.03980541229248047,0.010405410081148148,0.006448641419410706
1714065718395851000,2.77885107421875,-0.08622932434082031,-0.027261700481176376,0.008905738592147827
1714065718405730800,2.788730712890625,-0.06831741333007812,-0.04063849523663521,0.023092463612556458
1714065718415611400,2.798611328125,0.03640174865722656,-0.011535517871379852,0.03233437240123749
1714065718425491200,2.8084912109375,0.10170936584472656,0.035916008055210114,0.015526041388511658
1714065718435370000,2.818369873046875,0.0811758041381836,0.06127016246318817,0.0037062615156173706
1714065718445249800,2.828249755859375,-0.014349937438964844,0.032055262476205826,0.00632748007774353
1714065718455130600,2.838130615234375,-0.09416007995605469,-0.010679151862859726,0.013613417744636536
1714065718465010200,2.84801025390625,-0.0737600326538086,-0.02445102483034134,0.015950709581375122
1714065718474889200,2.85788916015625,0.012216567993164062,-0.007388841360807419,0.02295738458633423
1714065718484769000,2.86776904296875,0.10146903991699219,0.037639372050762177,0.00630536675453186
1714065718494649600,2.877649658203125,0.08800315856933594,0.06296487152576447,0.008764490485191345
1714065718504529400,2.887529296875,0.0017805099487304688,0.040903013199567795,0.00647425651550293
1714065718514408200,2.897408203125,-0.06888008117675781,-0.0161040760576725,-0.00036747753620147705
1714065718524288000,2.9072880859375,-0.08892440795898438,-0.03213968873023987,0.02339063584804535
1714065718534168800,2.9171689453125,-0.0026960372924804688,-0.01730349287390709,0.028037920594215393
1714065718544048400,2.92704833984375,0.0726785659790039,0.02082548290491104,0.027780979871749878
1714065718553927400,2.936927490234375,0.10677719116210938,0.05820402875542641,0.01811075210571289
1714065718563807200,2.94680712890625,0.027304649353027344,0.050228022038936615,0.008602172136306763
1714065718573687800,2.956687744140625,-0.06261253356933594,0.0001281239092350006,0.003960475325584412
1714065718583567600,2.966567626953125,-0.08982467651367188,-0.032657381147146225,0.018229693174362183
1714065718593446700,2.97644677734375,-0.029476165771484375,-0.015458393841981888,0.04167783260345459
1714065718603326500,2.986326416015625,0.07459545135498047,0.010870754718780518,0.02471381425857544
1714065718613207000,2.99620703125,0.09688854217529297,0.05088631063699722,0.01521390676498413
1714065718623086800,3.0060869140625,0.03876972198486328,0.04785940796136856,0.0010451972484588623
1714065718632966000,3.0159658203125,-0.06075572967529297,0.009451191872358322,0.0035920143127441406
1714065718642845400,3.025845458984375,-0.09741497039794922,-0.016427122056484222,0.01786738634109497
1714065718652726300,3.035726318359375,-0.06283760070800781,-0.03469280153512955,0.02013382315635681
1714065718662605800,3.045605712890625,0.034728050231933594,0.003727927803993225,0.027070850133895874
1714065718672484900,3.05548486328125,0.09770870208740234,0.05092505365610123,0.01976706087589264
1714065718682364700,3.06536474609375,0.07253456115722656,0.05248522385954857,0.003168657422065735
1714065718692245200,3.075245361328125,-0.03226280212402344,0.01870834082365036,0.008034318685531616
1714065718702125000,3.085125,-0.09764671325683594,-0.021449442952871323,0.008110463619232178
1714065718712004000,3.095004150390625,-0.06777286529541016,-0.03975018858909607,0.019956275820732117
1714065718721884000,3.1048837890625,0.013396263122558594,-0.015370387583971024,0.02925044298171997
1714065718731764500,3.114764404296875,0.08614921569824219,0.04155995696783066,0.014848172664642334
1714065718741644000,3.12464404296875,0.08471107482910156,0.07152658700942993,0.009983986616134644
1714065718751523000,3.134523193359375,-0.015581130981445312,0.020952969789505005,0.002965018153190613
1714065718761403000,3.14440283203125,-0.09066009521484375,-0.005117066204547882,0.005479857325553894
1714065718771283500,3.154283447265625,-0.08208942413330078,-0.030754491686820984,0.022078335285186768
1714065718781163300,3.164163330078125,0.011087417602539062,-0.022885240614414215,0.026628747582435608
1714065718791042300,3.174042236328125,0.0909414291381836,0.038880620151758194,0.009915530681610107
1714065718800922000,3.183922119140625,0.09883880615234375,0.06183122470974922,0.002897709608078003
1714065718810802700,3.193802734375,0.014788627624511719,0.04449668526649475,0.0008240789175033569
1714065718820682500,3.2036826171875,-0.07727527618408203,-0.007861845195293427,0.008082985877990723
1714065718830561300,3.213561279296875,-0.09247112274169922,-0.0334516242146492,0.01757507026195526
1714065718840441000,3.223441162109375,-0.0203094482421875,-0.023301947861909866,0.027027681469917297
1714065718850322000,3.233322021484375,0.06477642059326172,0.02199152484536171,0.017370447516441345
1714065718860201500,3.243201416015625,0.09900569915771484,0.04769653454422951,0.014936760067939758
1714065718870080500,3.25308056640625,0.04320526123046875,0.04695821925997734,-0.003935709595680237
1714065718879960300,3.262960205078125,-0.05168628692626953,0.00397351011633873,-0.01072220504283905
1714065718889841000,3.2728408203125,-0.08849620819091797,-0.026521872729063034,0.017916947603225708
1714065718899720700,3.282720703125,-0.03994178771972656,-0.0399109311401844,0.022536739706993103
1714065718909599700,3.292599853515625,0.04547309875488281,0.01048644632101059,0.017544016242027283
1714065718919479600,3.3024794921875,0.09885787963867188,0.050508398562669754,0.022170022130012512
1714065718929360100,3.312360107421875,0.06660175323486328,0.05455038696527481,0.005531236529350281
1714065718939240000,3.322239990234375,-0.0404510498046875,0.013793356716632843,0.003295332193374634
1714065718949118700,3.33211865234375,-0.0892190933227539,-0.019219882786273956,0.01757565140724182
1714065718958998500,3.34199853515625,-0.059485435485839844,-0.04214739426970482,0.015138566493988037
1714065718968879000,3.351879150390625,0.04037761688232422,-0.010665006935596466,0.029221460223197937
1714065718978759000,3.361759033203125,0.09620094299316406,0.03912624716758728,0.0006941109895706177
1714065718988638000,3.371637939453125,0.07811450958251953,0.05748116597533226,0.007955580949783325
1714065718998517800,3.381517822265625,-0.010295867919921875,0.02597522735595703,0.0009704828262329102
1714065719008398300,3.3913984375,-0.08310794830322266,-0.0025326088070869446,0.012935414910316467
1714065719018278100,3.401278076171875,-0.0817270278930664,-0.03762795403599739,0.024700865149497986
1714065719028157200,3.4111572265625,-0.0003261566162109375,-0.008575115352869034,0.01979079842567444
1714065719038036700,3.42103662109375,0.08678054809570312,0.04600844159722328,0.01260840892791748
1714065719047917600,3.43091748046875,0.08768463134765625,0.06660482287406921,0.012608349323272705
1714065719057797000,3.440797119140625,0.00382232666015625,0.028003010898828506,0.0008373111486434937
1714065719067676200,3.45067626953125,-0.07864093780517578,-0.0005386769771575928,0.00809602439403534
1714065719077556000,3.460555908203125,-0.09852218627929688,-0.03331494331359863,0.019942551851272583
1714065719087436500,3.4704365234375,-0.021549224853515625,-0.018459122627973557,0.022174417972564697
1714065719097316400,3.48031640625,0.07061958312988281,0.005565855652093887,0.017306476831436157
1714065719107195400,3.4901953125,0.1047525405883789,0.052613671869039536,0.0078112781047821045
1714065719117075200,3.5000751953125,0.03708648681640625,0.0517934150993824,0.007772400975227356
1714065719126955800,3.509955810546875,-0.06712055206298828,0.010965477675199509,0.0007903724908828735
1714065719136835300,3.51983544921875,-0.09190177917480469,-0.0384800098836422,0.0080498605966568
1714065719146714400,3.52971435546875,-0.03622722625732422,-0.021065201610326767,0.02695930004119873
1714065719156594200,3.53959423828125,0.051476478576660156,0.005476173013448715,0.014949023723602295
1714065719166474800,3.549474853515625,0.10240650177001953,0.04075448215007782,0.007847338914871216
1714065719176354600,3.5593544921875,0.07244586944580078,0.05673002079129219,0.005572453141212463
1714065719186233600,3.569233642578125,-0.044121742248535156,0.02064702659845352,-0.0037271231412887573
1714065719196113400,3.579113525390625,-0.09518146514892578,-0.019543029367923737,0.02008703351020813
1714065719205994000,3.588993896484375,-0.08182811737060547,-0.026104498654603958,0.01996232569217682
1714065719215873800,3.598873779296875,0.013699531555175781,-0.008897848427295685,0.0198400616645813
1714065719225752600,3.608752685546875,0.08644580841064453,0.04321815446019173,0.01042136549949646
1714065719235632400,3.61863232421875,0.08735466003417969,0.05679841339588165,0.005749344825744629
1714065719245513200,3.62851318359375,-0.024751663208007812,0.034839458763599396,-0.005907341837882996
1714065719255392800,3.638392822265625,-0.09967899322509766,-0.0008787587285041809,0.003936737775802612
1714065719265271800,3.648271728515625,-0.09331417083740234,-0.031174544245004654,0.015852153301239014
1714065719275151600,3.658151611328125,-0.018782615661621094,-0.025771189481019974,0.020506352186203003
1714065719285032200,3.6680322265625,0.07098579406738281,0.026626016944646835,0.018020421266555786
1714065719294912000,3.677912109375,0.08863258361816406,0.05919573828577995,0.0014511346817016602
1714065719304791000,3.687791015625,0.014171600341796875,0.041786402463912964,0.006345406174659729
1714065719314670600,3.697670654296875,-0.08965396881103516,-0.008172765374183655,0.008803904056549072
1714065719324551400,3.707551513671875,-0.09051799774169922,-0.028930146247148514,0.025346606969833374
1714065719334431000,3.717430908203125,-0.03251171112060547,-0.03062685951590538,0.0321967750787735
1714065719344310000,3.72731005859375,0.05042266845703125,0.014788668602705002,0.020099148154258728
1714065719354189800,3.73718994140625,0.09901714324951172,0.04991178587079048,0.0011406093835830688
1714065719364070400,3.7470703125,0.04321861267089844,0.04442813992500305,0.005921304225921631
1714065719373950200,3.7569501953125,-0.061089515686035156,0.010904334485530853,-0.003384113311767578
1714065719383829200,3.766829345703125,-0.1000967025756836,-0.029123369604349136,0.013361692428588867
1714065719393709000,3.776708984375,-0.05370330810546875,-0.03787942975759506,0.020411595702171326
1714065719403589600,3.786589599609375,0.036647796630859375,0.005421523004770279,0.022635608911514282
1714065719413469200,3.79646923828125,0.0972433090209961,0.03846528008580208,0.0011618435382843018
1714065719423348200,3.80634814453125,0.06501483917236328,0.056714363396167755,-0.003355875611305237
1714065719433228000,3.81622802734375,-0.03024005889892578,0.02063160389661789,0.0180978924036026
1714065719443108600,3.826108642578125,-0.08388805389404297,-0.017204035073518753,0.008708298206329346
1714065719452988400,3.835988525390625,-0.06837177276611328,-0.04016515612602234,0.027725502848625183
1714065719462867500,3.845867431640625,0.03634834289550781,-0.010951302945613861,0.018056616187095642
1714065719472747300,3.855747314453125,0.09224128723144531,0.0294279046356678,0.010784342885017395
1714065719482627800,3.8656279296875,0.07422065734863281,0.05971739813685417,0.0037520676851272583
1714065719492507600,3.875507568359375,-0.0164794921875,0.03994326665997505,0.006254225969314575
1714065719502386400,3.885386474609375,-0.09154319763183594,-0.021756187081336975,0.006360039114952087
1714065719512266200,3.895266357421875,-0.08766746520996094,-0.040051788091659546,0.018235057592391968
1714065719522147000,3.90514697265625,-0.010875701904296875,-0.01319398358464241,0.01578696072101593
1714065719532026600,3.915026611328125,0.07876205444335938,0.015449710190296173,0.015615507960319519
1714065719541905700,3.92490576171875,0.09157371520996094,0.052916016429662704,-0.0010328590869903564
1714065719551785500,3.934785400390625,0.010003089904785156,0.045144952833652496,0.0037844479084014893
1714065719561666000,3.944666015625,-0.0749197006225586,0.004546616226434708,0.008639857172966003
1714065719571545900,3.9545458984375,-0.10192584991455078,-0.028312522917985916,0.020476877689361572
1714065719581425000,3.9644248046875,-0.027250289916992188,-0.03943822905421257,0.02740858495235443
1714065719591304400,3.974304443359375,0.05559825897216797,0.01318485289812088,0.0035014599561691284
1714065719601185300,3.984185302734375,0.09468936920166016,0.05080762878060341,0.0036531388759613037
1714065719611064800,3.99406494140625,0.05073356628417969,0.05001746118068695,0.00839194655418396
1714065719620944000,4.00394384765625,-0.05605506896972656,0.009217198938131332,0.0013999491930007935
1714065719630823700,4.01382373046875,-0.10456275939941406,-0.035490792244672775,0.015711858868598938
1714065719640704300,4.023704345703125,-0.055739402770996094,-0.032371606677770615,0.02036881446838379
1714065719650584000,4.033583984375,0.03935432434082031,-0.008116688579320908,0.017885521054267883
1714065719660463000,4.043463134765625,0.10932064056396484,0.053403064608573914,0.013089030981063843
1714065719670343000,4.053343017578125,0.06511878967285156,0.059632204473018646,0.010726720094680786
1714065719680223500,4.063223388671875,-0.041909217834472656,0.02585497871041298,0.008403822779655457
1714065719690103000,4.07310302734375,-0.0906524658203125,-0.014421887695789337,0.0061196088790893555
1714065719699982000,4.082982177734375,-0.0797281265258789,-0.03519396483898163,0.01329021155834198
1714065719709862000,4.09286181640625,0.00634765625,-0.020306874066591263,0.008570298552513123
1714065719719742500,4.102742431640625,0.08157157897949219,0.02717212215065956,0.003929063677787781
1714065719729622300,4.112622314453125,0.08962535858154297,0.0456075519323349,0.006428197026252747
1714065719739501300,4.122501220703125,-0.0036859512329101562,0.02371629700064659,-0.0028856992721557617
1714065719749381000,4.132381103515625,-0.09073352813720703,-0.009462360292673111,0.0114976167678833
1714065719759261700,4.14226171875,-0.09157657623291016,-0.030317068099975586,0.020814061164855957
1714065719769141500,4.1521416015625,-0.017075538635253906,-0.01774672046303749,0.0277397483587265
1714065719779020300,4.162020263671875,0.0797271728515625,0.018037348985671997,0.013362199068069458
1714065719788900000,4.171900146484375,0.09252071380615234,0.05075208097696304,0.010995298624038696
1714065719798781000,4.181781005859375,0.02976512908935547,0.052317049354314804,-0.0031030625104904175
1714065719808660500,4.191660400390625,-0.069610595703125,0.011599123477935791,0.006575495004653931
1714065719818539500,4.20153955078125,-0.09435272216796875,-0.023731786757707596,0.018565639853477478
1714065719828419300,4.21141943359375,-0.02686595916748047,-0.025515124201774597,0.016112014651298523
1714065719838300000,4.2212998046875,0.06303787231445312,0.008044242858886719,0.01369929313659668
1714065719848179700,4.2311796875,0.09965038299560547,0.0528152696788311,0.008972570300102234
1714065719858058800,4.241058837890625,0.06032085418701172,0.05199163779616356,0.004205912351608276
1714065719867938300,4.250938232421875,-0.056044578552246094,0.011279147118330002,-0.0003625154495239258
1714065719877819100,4.260819091796875,-0.09984207153320312,-0.019339896738529205,-0.002618938684463501
1714065719887698700,4.27069873046875,-0.06522369384765625,-0.035321611911058426,0.025885075330734253
1714065719897577700,4.28057763671875,0.037093162536621094,-0.006307221949100494,0.016128122806549072
1714065719907457500,4.29045751953125,0.1023874282836914,0.03623005375266075,0.01842351257801056
1714065719917338000,4.300338134765625,0.067718505859375,0.056987468153238297,0.006555929780006409
1714065719927218000,4.310218017578125,-0.029935836791992188,0.02325243502855301,-0.007468059659004211
1714065719937097000,4.320096923828125,-0.09065055847167969,-0.024045556783676147,0.006992056965827942
1714065719946976800,4.329976806640625,-0.08207988739013672,-0.03288813680410385,0.021211132407188416
1714065719956857300,4.339857421875,0.0016803741455078125,-0.020393673330545425,0.028130218386650085
1714065719966737000,4.34973681640625,0.09110832214355469,0.04839329421520233,0.016100391745567322
1714065719976616000,4.359615966796875,0.09900474548339844,0.04305366799235344,0.01356913149356842
1714065719986495700,4.369495849609375,0.0031824111938476562,0.03532824292778969,0.0017824620008468628
1714065719996376300,4.379376220703125,-0.0863332748413086,-0.007460698485374451,0.001962825655937195
1714065720006256000,4.389256103515625,-0.09196281433105469,-0.030584238469600677,0.01861952245235443
1714065720016135200,4.39913525390625,-0.024514198303222656,-0.027544938027858734,0.020754650235176086
1714065720026015000,4.409014892578125,0.07476615905761719,0.02252761274576187,0.02297292649745941
1714065720035895600,4.4188955078125,0.0994110107421875,0.0576404370367527,0.01821044087409973
1714065720045775400,4.428775390625,0.03418731689453125,0.04967382177710533,0.003991797566413879
1714065720055654100,4.438654052734375,-0.06761741638183594,0.001937374472618103,0.004135310649871826
1714065720065534000,4.448533935546875,-0.09474468231201172,-0.02852410078048706,0.013693228363990784
1714065720075414500,4.45841455078125,-0.039023399353027344,-0.02775459736585617,0.023091807961463928
1714065720085294300,4.46829443359375,0.05814552307128906,0.008196257054805756,0.02762533724308014
1714065720095173400,4.47817333984375,0.0995492935180664,0.04590211436152458,0.0156039297580719
1714065720105053200,4.48805322265625,0.05315589904785156,0.05002087354660034,-0.00563386082649231
1714065720114933800,4.497933837890625,-0.048964500427246094,0.016403865069150925,-0.007684096693992615
1714065720124813600,4.5078134765625,-0.0999441146850586,-0.026069723069667816,0.013841807842254639
1714065720134692600,4.517692626953125,-0.0723876953125,-0.027695342898368835,0.02559208869934082
1714065720144572200,4.527572265625,0.039463043212890625,-0.012935157865285873,0.03243853151798248
1714065720154453000,4.537452880859375,0.10001087188720703,0.04160230979323387,0.027399510145187378
1714065720164332500,4.54733251953125,0.08421516418457031,0.05520949885249138,0.008319303393363953
1714065720174211600,4.557211669921875,-0.027837753295898438,0.012089181691408157,-0.005853235721588135
1714065720184091400,4.56709130859375,-0.09564781188964844,-0.016189195215702057,0.0013986080884933472
1714065720193972000,4.576971923828125,-0.07757759094238281,-0.027514953166246414,0.02748151123523712
1714065720203851800,4.586851806640625,0.010816574096679688,-0.005574554204940796,0.03194187581539154
1714065720213730800,4.596730712890625,0.08361339569091797,0.03706922382116318,0.02220270037651062
1714065720223610600,4.606610595703125,0.0986948013305664,0.048279035836458206,0.014980107545852661
1714065720233491200,4.6164912109375,0.007588386535644531,0.04058526083827019,-0.001657232642173767
1714065720243370800,4.626370849609375,-0.08435535430908203,-0.00935390219092369,-0.0014195442199707031
1714065720253249800,4.636249755859375,-0.08295345306396484,-0.03491881862282753,0.027064502239227295
1714065720263129600,4.646129638671875,-0.006241798400878906,-0.024625953286886215,0.03153182566165924
1714065720273010200,4.65601025390625,0.07154655456542969,0.018335409462451935,0.026507914066314697
1714065720282890000,4.665889892578125,0.09624576568603516,0.05822649225592613,0.007442578673362732
1714065720292769000,4.67576904296875,0.031076431274414062,0.050250109285116196,0.0027014166116714478
1714065720302648800,4.68564892578125,-0.06596755981445312,0.007212471216917038,-0.001841917634010315
1714065720312529400,4.695529296875,-0.10960006713867188,-0.03275369852781296,0.026649221777915955
1714065720322409200,4.7054091796875,-0.04656982421875,-0.036622099578380585,0.031123489141464233
1714065720332288000,4.7152880859375,0.07191181182861328,0.01842694729566574,0.03787772357463837
1714065720342167800,4.725167724609375,0.09425163269042969,0.04183712601661682,0.006851866841316223
1714065720352048400,4.73504833984375,0.06442642211914062,0.053086258471012115,0.0022393465042114258
1714065720361928200,4.74492822265625,-0.044943809509277344,0.007647145539522171,0.00005790591239929199
1714065720371807200,4.75480712890625,-0.10069847106933594,-0.02997402474284172,0.002621591091156006
1714065720381687000,4.76468701171875,-0.07077407836914062,-0.03871586546301842,0.01926732063293457
1714065720391567600,4.774567626953125,0.03634166717529297,0.006834510713815689,0.02857300639152527
1714065720401447400,4.784447509765625,0.10164833068847656,0.04691537469625473,0.004765227437019348
1714065720411326200,4.794326171875,0.0717000961303711,0.06043209508061409,0.0001878291368484497
1714065720421206000,4.8042060546875,-0.02602100372314453,0.017222873866558075,-0.01843838393688202
1714065720431086600,4.814086669921875,-0.10327911376953125,-0.008784964680671692,0.005620971322059631
1714065720440966400,4.82396630859375,-0.08743667602539062,-0.03436126187443733,0.02457129955291748
1714065720450845400,4.833845458984375,0.015247344970703125,-0.01701703667640686,0.026726335287094116
1714065720460725200,4.843725341796875,0.09267997741699219,0.0375884510576725,0.007538586854934692
1714065720470605800,4.853605712890625,0.0958395004272461,0.055970944464206696,0.009977206587791443
1714065720480485600,4.863485595703125,0.0024251937866210938,0.03637801110744476,-0.0041037797927856445
1714065720490364400,4.873364501953125,-0.09178733825683594,0.0006322190165519714,0.00794607400894165
1714065720500244200,4.883244140625,-0.09026145935058594,-0.03922427445650101,0.024503067135810852
1714065720510125000,4.893125,-0.01578044891357422,-0.019442852586507797,0.03124856948852539
1714065720520004600,4.903004638671875,0.0833587646484375,0.018723726272583008,0.021402224898338318
1714065720529883600,4.912883544921875,0.09373760223388672,0.053899966180324554,0.009365811944007874
1714065720539763500,4.922763427734375,0.030961990356445312,0.04599564149975777,-0.0070595890283584595
1714065720549644000,4.93264404296875,-0.0778493881225586,-0.004152446985244751,0.005039140582084656
1714065720559523800,4.94252392578125,-0.10716056823730469,-0.029804028570652008,0.009873583912849426
1714065720569402600,4.952402587890625,-0.044170379638671875,-0.02665899321436882,0.02875259518623352
1714065720579282400,4.962282470703125,0.06250286102294922,0.006919398903846741,0.014239475131034851
1714065720589163300,4.972163330078125,0.10147762298583984,0.061125971376895905,0.0024411827325820923
1714065720599042800,4.982042724609375,0.055052757263183594,0.06016191840171814,-0.006805837154388428
1714065720608921900,4.991921875,-0.040035247802734375,0.02861129119992256,0.0029344260692596436
1714065720618801700,5.0018017578125,-0.09116458892822266,-0.030547022819519043,0.01251278817653656
1714065720628682200,5.01168212890625,-0.06846046447753906,-0.027508288621902466,0.028993651270866394
1714065720638562000,5.02156201171875,0.02920055389404297,0.003730088472366333,0.021539106965065002
1714065720648441000,5.031441162109375,0.09933662414550781,0.034445904195308685,0.01668211817741394
1714065720658320600,5.041320556640625,0.0694265365600586,0.05288076773285866,0.00013475120067596436
1714065720668201500,5.051201416015625,-0.025900840759277344,0.02627672255039215,0.002578422427177429
1714065720678081000,5.0610810546875,-0.08668041229248047,-0.021069757640361786,0.021579086780548096
1714065720687960000,5.0709599609375,-0.07582283020019531,-0.03466842696070671,0.030846253037452698
1714065720697839900,5.08083984375,0.029021263122558594,0.0037519149482250214,0.016416966915130615
1714065720707720400,5.090720458984375,0.08974456787109375,0.025050591677427292,0.013880833983421326
1714065720717600300,5.100600341796875,0.08118534088134766,0.04823170229792595,-0.007446989417076111
1714065720727479300,5.110479248046875,0.0021409988403320312,0.026415418833494186,-0.002523183822631836
1714065720737358800,5.12035888671875,-0.08029556274414062,-0.009162373840808868,0.009499922394752502
1714065720747239700,5.13023974609375,-0.09073162078857422,-0.032376229763031006,0.02132265269756317
1714065720757119200,5.140119140625,-0.0021181106567382812,-0.015063159167766571,0.028239890933036804
1714065720766998300,5.149998291015625,0.08737468719482422,0.027738776057958603,0.006672725081443787
1714065720776878000,5.159878173828125,0.10004138946533203,0.05793572962284088,0.006653189659118652
1714065720786758700,5.169758544921875,0.0159759521484375,0.04289969429373741,-0.005136951804161072
1714065720796638500,5.179638427734375,-0.06669235229492188,-0.011786408722400665,0.00928393006324768
1714065720806517500,5.189517578125,-0.07970905303955078,-0.037310756742954254,0.02111022174358368
1714065720816397000,5.19939697265625,-0.03600597381591797,-0.024742551147937775,0.03497485816478729
1714065720826278000,5.20927783203125,0.06346797943115234,0.015864606946706772,0.02035844326019287
1714065720836157400,5.219157470703125,0.1047830581665039,0.06038464605808258,0.0037502050399780273
1714065720846036500,5.229036376953125,0.030051231384277344,0.04766198620200157,0.0038981735706329346
1714065720855916300,5.238916259765625,-0.05755615234375,0.0021925829350948334,0.003924936056137085
1714065720865796900,5.248796875,-0.10132980346679688,-0.028273098170757294,0.022903189063072205
1714065720875676700,5.2586767578125,-0.040790557861328125,-0.034689128398895264,0.01802310347557068
1714065720885555700,5.2685556640625,0.05640697479248047,0.008439943194389343,0.01557852327823639
1714065720895435500,5.278435546875,0.09313106536865234,0.046139854937791824,-0.000950053334236145
1714065720905316000,5.288316162109375,0.0633249282836914,0.06190499663352966,0.00869305431842804
1714065720915195600,5.298195556640625,-0.053089141845703125,0.023260779678821564,0.004050299525260925
1714065720925074700,5.30807470703125,-0.10400199890136719,-0.02862505242228508,0.015963837504386902
1714065720934954500,5.31795458984375,-0.064605712890625,-0.03032682090997696,0.020616203546524048
1714065720944835000,5.3278349609375,0.03769874572753906,-0.0013956166803836823,0.02048264443874359
1714065720954715000,5.33771484375,0.09121322631835938,0.027053367346525192,0.008580312132835388
1714065720964594000,5.347593994140625,0.08968925476074219,0.05973663181066513,-0.005477815866470337
1714065720974473500,5.357473388671875,-0.015393257141113281,0.02360350266098976,0.004240378737449646
1714065720984354300,5.367354248046875,-0.0787038803100586,-0.021344199776649475,0.013796612620353699
1714065720994233900,5.37723388671875,-0.08681297302246094,-0.037173666059970856,0.023193523287773132
1714065721004113000,5.38711279296875,0.006442070007324219,-0.017426427453756332,0.020662769675254822
1714065721013992700,5.39699267578125,0.09578990936279297,0.025533679872751236,0.006403252482414246
1714065721023873300,5.406873291015625,0.09418964385986328,0.05117778480052948,-0.000555574893951416
1714065721033753000,5.416753173828125,-0.0015516281127929688,0.024483371526002884,0.009080976247787476
1714065721043632000,5.426632080078125,-0.07686328887939453,-0.01341642439365387,0.01384812593460083
1714065721053511700,5.43651171875,-0.08971214294433594,-0.03185098618268967,0.0185357928276062
1714065721063392500,5.446392578125,-0.02230358123779297,-0.02867179363965988,0.02079111337661743
1714065721073272000,5.45627197265625,0.07694053649902344,0.019065432250499725,0.015946239233016968
1714065721083151000,5.466151123046875,0.0991964340209961,0.06129857152700424,-0.0005888640880584717
1714065721093031000,5.476031005859375,0.04339313507080078,0.039143893867731094,-0.0027227401733398438
1714065721102911500,5.485911376953125,-0.06091785430908203,0.0009997673332691193,0.006949558854103088
1714065721112791300,5.495791259765625,-0.1093454360961914,-0.02932725101709366,0.02587740123271942
1714065721122670300,5.50567041015625,-0.04631614685058594,-0.028663087636232376,0.016120612621307373
1714065721132550000,5.5155498046875,0.043913841247558594,0.007301054894924164,0.018297791481018066
1714065721142430700,5.5254306640625,0.10674190521240234,0.04490315914154053,0.008786112070083618
1714065721152310300,5.535310302734375,0.06258296966552734,0.05610117316246033,0.0017871707677841187
1714065721162189300,5.545189208984375,-0.046756744384765625,0.01061183214187622,-0.00038670003414154053
1714065721172069000,5.555069091796875,-0.09541893005371094,-0.02470254898071289,0.009246647357940674
1714065721181949700,5.56494970703125,-0.06087303161621094,-0.035886410623788834,0.018719419836997986
1714065721191829500,5.57482958984375,0.03194999694824219,-0.006862573325634003,0.018617480993270874
1714065721201708500,5.58470849609375,0.10439586639404297,0.049926016479730606,0.011455029249191284
1714065721211588000,5.594588134765625,0.08381938934326172,0.06339453160762787,-0.002769768238067627
1714065721221469000,5.604468994140625,-0.018810272216796875,0.038971420377492905,0.006784513592720032
1714065721231348500,5.614348388671875,-0.08677005767822266,-0.015651140362024307,0.018534138798713684
1714065721241227500,5.6242275390625,-0.08768177032470703,-0.0387587733566761,0.016081511974334717
1714065721251107300,5.634107421875,0.005588531494140625,-0.014395438134670258,0.027794525027275085
1714065721260988000,5.64398779296875,0.09024333953857422,0.04487483203411102,0.008707776665687561
1714065721270867700,5.65386767578125,0.08873558044433594,0.05842749401926994,0.0017101466655731201
1714065721280746500,5.66374658203125,-0.0022077560424804688,0.03867679834365845,0.0018917471170425415
1714065721290626300,5.673626220703125,-0.07750797271728516,-0.00887632742524147,0.01854972541332245
1714065721300507100,5.683507080078125,-0.099761962890625,-0.02738650143146515,0.018450677394866943
1714065721310386700,5.69338671875,-0.008643150329589844,-0.01733982190489769,0.020707815885543823
1714065721320265700,5.703265625,0.08095741271972656,0.02785426750779152,0.011155948042869568
1714065721330145500,5.7131455078125,0.10785388946533203,0.058170001953840256,0.008825898170471191
1714065721340026000,5.723026123046875,0.02129840850830078,0.04560498148202896,0.011361956596374512
1714065721349906000,5.732906005859375,-0.07087326049804688,0.0049990154802799225,0.009028524160385132
1714065721359784700,5.74278466796875,-0.10500907897949219,-0.04199281334877014,0.020859122276306152
1714065721369664500,5.75266455078125,-0.04205513000488281,-0.03393620252609253,0.008950546383857727
1714065721379545000,5.762545166015625,0.052811622619628906,0.016242939978837967,0.01595526933670044
1714065721389425000,5.7724248046875,0.11078262329101562,0.05616898834705353,0.011191040277481079
1714065721399304000,5.782303955078125,0.05478668212890625,0.055408257991075516,0.011214613914489746
1714065721409183700,5.792183837890625,-0.06619453430175781,0.009811688214540482,0.004175245761871338
1714065721419064300,5.802064208984375,-0.10747146606445312,-0.02313513308763504,0.011378377676010132
1714065721428944100,5.811944091796875,-0.06801795959472656,-0.03658057004213333,0.025523975491523743
1714065721438823000,5.821822998046875,0.029633522033691406,-0.00048258155584335327,0.02060021460056305
1714065721448702700,5.83170263671875,0.10211753845214844,0.04442866891622543,0.010931789875030518
1714065721458583300,5.841583251953125,0.07686996459960938,0.048453252762556076,0.0038971006870269775
1714065721468463000,5.851463134765625,-0.037415504455566406,0.01709778606891632,0.013459056615829468
1714065721478342100,5.861342041015625,-0.10741996765136719,-0.015970557928085327,0.010971859097480774
1714065721488222000,5.871221923828125,-0.08679866790771484,-0.03907094895839691,0.01570744812488556
1714065721498102500,5.8811025390625,0.01587390899658203,-0.014702413231134415,0.018009915947914124
1714065721507982300,5.890982421875,0.08152389526367188,0.03750842064619064,0.017920181155204773
1714065721517861000,5.900861083984375,0.08487129211425781,0.0582444965839386,0.01535901427268982
1714065721527741000,5.910740966796875,-0.020130157470703125,0.024371657520532608,0.008131757378578186
1714065721537621500,5.92062158203125,-0.08806705474853516,-0.011173978447914124,0.012796357274055481
1714065721547501300,5.930501220703125,-0.10072898864746094,-0.04377114772796631,0.02220994234085083
1714065721557380400,5.94038037109375,-0.02136516571044922,-0.009907476603984833,0.017341390252113342
1714065721567260200,5.95026025390625,0.07315635681152344,0.03045433759689331,0.017143651843070984
1714065721577140700,5.960140625,0.09782981872558594,0.06060601770877838,0.007651597261428833
1714065721587020300,5.970020263671875,0.011445045471191406,0.03846479952335358,0.003025755286216736
1714065721596899300,5.9798994140625,-0.07820892333984375,-0.009203605353832245,0.014956369996070862
1714065721606779100,5.989779052734375,-0.10280609130859375,-0.04195231944322586,0.014917165040969849
1714065721616659700,5.99965966796875,-0.028115272521972656,-0.01988998055458069,0.029003769159317017
1714065721626539500,6.00953955078125,0.07828807830810547,0.013575635850429535,0.016959398984909058
1714065721636418600,6.01941845703125,0.10052108764648438,0.058254458010196686,0.007469967007637024
1714065721646298400,6.02929833984375,0.02115345001220703,0.05027761682868004,0.0004929453134536743
1714065721656179000,6.039178955078125,-0.06630897521972656,0.007237602025270462,0.01011204719543457
1714065721666058500,6.04905859375,-0.09345722198486328,-0.03273093327879906,0.0030913949012756348
1714065721675937500,6.0589375,-0.05423736572265625,-0.03189133480191231,0.029146045446395874
1714065721685817300,6.0688173828125,0.0502471923828125,0.011191077530384064,0.012390896677970886
1714065721695698000,6.078697998046875,0.10355281829833984,0.048847123980522156,0.012394428253173828
1714065721705577700,6.08857763671875,0.04296875,0.052916787564754486,0.0006269216537475586
1714065721715456800,6.098456787109375,-0.058981895446777344,0.012070108205080032,0.0008265376091003418
1714065721725336300,6.10833642578125,-0.1215658187866211,-0.023268617689609528,0.012793824076652527
1714065721735217200,6.118217041015625,-0.06304359436035156,-0.029768064618110657,0.02456161379814148
1714065721745096700,6.1280966796875,0.025109291076660156,-0.007908813655376434,0.022008046507835388
1714065721754975700,6.137975830078125,0.09060478210449219,0.03241968899965286,0.007726043462753296
1714065721764855600,6.14785546875,0.06790351867675781,0.050886370241642,0.0030993223190307617
1714065721774736100,6.157736083984375,-0.03917121887207031,0.026552904397249222,-0.006159037351608276
1714065721784616000,6.167615966796875,-0.1091470718383789,-0.03021692857146263,0.010633453726768494
1714065721794494700,6.17749462890625,-0.0979156494140625,-0.0413089357316494,0.017728805541992188
1714065721804374500,6.18737451171875,0.02613067626953125,-0.012194786220788956,0.027060091495513916
1714065721814255400,6.19725537109375,0.09631729125976562,0.030438676476478577,0.015048474073410034
1714065721824135000,6.207135009765625,0.0876455307006836,0.060592543333768845,0.0008824914693832397
1714065721834014000,6.217013916015625,-0.015049934387207031,0.03374314680695534,0.010494619607925415
1714065721843893800,6.226893798828125,-0.09484577178955078,-0.023144595324993134,0.005821347236633301
1714065721853774300,6.2367744140625,-0.09091472625732422,-0.024817027151584625,0.024767503142356873
1714065721863654100,6.246654052734375,-0.0046520233154296875,-0.014811314642429352,0.017502084374427795
1714065721873533000,6.256532958984375,0.07546329498291016,0.023396730422973633,0.015066146850585938
1714065721883412700,6.266412841796875,0.09774398803710938,0.05614086613059044,0.0008998513221740723
1714065721893293300,6.276293212890625,0.013714790344238281,0.038901202380657196,-0.003613486886024475
1714065721903173000,6.286173095703125,-0.08068656921386719,-0.01089116558432579,0.01078195869922638
1714065721913052200,6.29605224609375,-0.10524177551269531,-0.041138868778944016,0.020229026675224304
1714065721922932000,6.305931884765625,-0.0258026123046875,-0.02615271508693695,0.02716444432735443
1714065721932812500,6.3158125,0.06408214569091797,0.02872370183467865,0.019859090447425842
1714065721942692000,6.325692138671875,0.100677490234375,0.05419778451323509,0.0009045153856277466
1714065721952571100,6.335571044921875,0.0424957275390625,0.04640721157193184,0.0010994374752044678
1714065721962451000,6.345450927734375,-0.06415653228759766,0.005787797272205353,-0.005771428346633911
1714065721972331500,6.35533154296875,-0.10075855255126953,-0.03168170526623726,0.011014178395271301
1714065721982211300,6.36521142578125,-0.059060096740722656,-0.026269935071468353,0.025165751576423645
1714065721992090400,6.37509033203125,0.04785728454589844,0.005066443234682083,0.010831087827682495
1714065722001970000,6.384969970703125,0.10355663299560547,0.04046833887696266,0.001444116234779358
1714065722011850800,6.394850830078125,0.07122230529785156,0.05880085378885269,0.00869305431842804
1714065722021730300,6.404730224609375,-0.047677040100097656,0.015618745237588882,0.008639857172966003
1714065722031609300,6.414609375,-0.09632396697998047,-0.02213527262210846,0.015768855810165405
1714065722041489200,6.4244892578125,-0.07824230194091797,-0.026299405843019485,0.020424410700798035
1714065722051369700,6.43436962890625,0.02428722381591797,-0.006733495742082596,0.020293980836868286
1714065722061249500,6.44424951171875,0.099212646484375,0.035929612815380096,0.0013321340084075928
1714065722071128600,6.454128662109375,0.07872200012207031,0.06140033155679703,-0.0008338838815689087
1714065722081008400,6.46400830078125,-0.019115447998046875,0.029947802424430847,0.00880683958530426
1714065722090889000,6.473888916015625,-0.08942699432373047,-0.022168267518281937,0.004161715507507324
1714065722100768500,6.4837685546875,-0.08794021606445312,-0.02868608385324478,0.02549012005329132
1714065722110647600,6.4936474609375,0.012398719787597656,-0.018615882843732834,0.015858441591262817
1714065722120527400,6.50352734375,0.08517074584960938,0.03837042674422264,0.0039144158363342285
1714065722130408000,6.513407958984375,0.10258007049560547,0.06144823879003525,0.01583017408847809
1714065722140287700,6.523287841796875,0.0043468475341796875,0.0323491171002388,0.013303428888320923
1714065722150166500,6.53316650390625,-0.078125,-0.0033276528120040894,0.02023555338382721
1714065722160046300,6.54304638671875,-0.09095001220703125,-0.03840979188680649,0.008218586444854736
1714065722169927200,6.55292724609375,-0.030582427978515625,-0.028177518397569656,0.027125179767608643
1714065722179806700,6.562806640625,0.07586383819580078,0.028968147933483124,0.007930770516395569
1714065722189685800,6.572685791015625,0.1099100112915039,0.06620913743972778,0.008008569478988647
1714065722199565600,6.582565673828125,0.028031349182128906,0.04632673040032387,-0.0036854594945907593
1714065722209446100,6.592446044921875,-0.057190895080566406,0.003354497253894806,0.003648623824119568
1714065722219326000,6.602325927734375,-0.1080331802368164,-0.031839028000831604,0.017923012375831604
1714065722229204700,6.612204833984375,-0.045029640197753906,-0.03572274371981621,0.020188450813293457
1714065722239084500,6.62208447265625,0.05459403991699219,0.012133806943893433,0.027124136686325073
1714065722248965000,6.631965087890625,0.1031179428100586,0.05683666840195656,0.005694299936294556
1714065722258845000,6.641844970703125,0.06608295440673828,0.05594600737094879,0.010517820715904236
1714065722268724000,6.651723876953125,-0.04331684112548828,0.01752181351184845,0.0059629082679748535
1714065722278603800,6.661603759765625,-0.11087226867675781,-0.022497467696666718,0.008427754044532776
1714065722288484400,6.671484375,-0.07136154174804688,-0.02418263629078865,0.0202682763338089
1714065722298364200,6.6813642578125,0.033408164978027344,0.004646100103855133,0.024848833680152893
1714065722308243000,6.691242919921875,0.09170246124267578,0.03535046428442001,0.005810678005218506
1714065722318122800,6.701122802734375,0.07369041442871094,0.053772151470184326,-0.0034933537244796753
1714065722328003300,6.71100341796875,-0.014646530151367188,0.01773839071393013,0.0038375109434127808
1714065722337883100,6.720883056640625,-0.09915733337402344,-0.015342608094215393,0.01810915768146515
1714065722347762200,6.73076220703125,-0.0857381820678711,-0.04080771654844284,0.0274340957403183
1714065722357641700,6.740641845703125,0.012209892272949219,-0.016410309821367264,0.02718682587146759
1714065722367522600,6.7505224609375,0.09675312042236328,0.03347666189074516,0.010464325547218323
1714065722377402000,6.760402099609375,0.09984683990478516,0.044746313244104385,0.00331859290599823
1714065722387281200,6.77028125,0.008721351623535156,0.0369945652782917,-0.001353830099105835
1714065722397161000,6.780160888671875,-0.08323955535888672,-0.008176378905773163,0.003468424081802368
1714065722407041500,6.79004150390625,-0.09833526611328125,-0.0314067006111145,0.024808421730995178
1714065722416921300,6.79992138671875,-0.00724029541015625,-0.011874355375766754,0.0246049165725708
1714065722426800400,6.80980029296875,0.0752725601196289,0.028520189225673676,0.0149880051612854
1714065722436680200,6.81968017578125,0.10697460174560547,0.061060234904289246,0.005531415343284607
1714065722446560800,6.829560791015625,0.018082618713378906,0.050682418048381805,0.012711882591247559
1714065722456440300,6.8394404296875,-0.07874488830566406,-0.008960600942373276,0.0009390711784362793
1714065722466319400,6.8493193359375,-0.10098075866699219,-0.027350731194019318,0.0012521594762802124
1714065722476199200,6.85919921875,-0.03573894500732422,-0.02660083770751953,0.0296916663646698
1714065722486079700,6.869079833984375,0.06372928619384766,0.02345597743988037,0.01763579249382019
1714065722495959600,6.87895947265625,0.10739517211914062,0.04678231477737427,-0.0014004409313201904
1714065722505838600,6.888838623046875,0.04439353942871094,0.050765711814165115,0.0057771652936935425
1714065722515718100,6.89871826171875,-0.05522632598876953,0.012427840381860733,0.008245125412940979
1714065722525598700,6.9085986328125,-0.10374736785888672,-0.02291685715317726,0.02008873224258423
1714065722535478500,6.918478515625,-0.054938316345214844,-0.03648476302623749,0.024672314524650574
1714065722545357600,6.928357666015625,0.054268836975097656,0.00431998074054718,0.019643962383270264
1714065722555237400,6.9382373046875,0.11221790313720703,0.0326736681163311,0.01234525442123413
1714065722565118000,6.948117919921875,0.07738494873046875,0.06055483967065811,0.00999535620212555
1714065722574997800,6.957997802734375,-0.027492523193359375,0.022053856402635574,-0.004086360335350037
1714065722584876500,6.96787646484375,-0.0929555892944336,-0.01815970242023468,0.00560857355594635
1714065722594756400,6.97775634765625,-0.08199310302734375,-0.027098461985588074,0.024558693170547485
1714065722604637000,6.987636962890625,0.018247604370117188,-0.019408907741308212,0.021886467933654785
1714065722614516700,6.997516845703125,0.10033702850341797,0.0399429127573967,0.007606878876686096
1714065722624395800,7.007395751953125,0.0915985107421875,0.051104798913002014,0.007690116763114929
1714065722634275600,7.017275634765625,0.0029621124267578125,0.03147610276937485,0.0007094144821166992
1714065722644156200,7.02715625,-0.08654975891113281,-0.01831122487783432,0.003261879086494446
1714065722654035700,7.03703564453125,-0.10394573211669922,-0.0460810512304306,0.019896909594535828
1714065722663914800,7.046914794921875,-0.0033397674560546875,-0.03324801102280617,0.02671915292739868
1714065722673794600,7.056794677734375,0.08617210388183594,0.026336397975683212,0.01471284031867981
1714065722683675100,7.066675048828125,0.10827445983886719,0.05185025557875633,-0.001801714301109314
1714065722693555000,7.076554931640625,0.021714210510253906,0.041623976081609726,0.0031471699476242065
1714065722703434000,7.08643408203125,-0.07517337799072266,0.0010842680931091309,0.0033047646284103394
1714065722713313800,7.096313720703125,-0.10688304901123047,-0.03866100311279297,0.015230715274810791
1714065722723194400,7.1061943359375,-0.034478187561035156,-0.01888897269964218,0.031547531485557556
1714065722733074000,7.116073974609375,0.0673227310180664,0.01926836371421814,0.02416914701461792
1714065722742953000,7.125952880859375,0.11563587188720703,0.047254160046577454,0.002788558602333069
1714065722752832800,7.135832763671875,0.04307842254638672,0.05594002455472946,0.007660537958145142
1714065722762713300,7.14571337890625,-0.06357955932617188,0.015161748975515366,0.005269989371299744
1714065722772593200,7.15559326171875,-0.09548377990722656,-0.024936892092227936,0.007746398448944092
1714065722782472200,7.16547216796875,-0.049163818359375,-0.038471125066280365,0.038313135504722595
1714065722792351700,7.175351806640625,0.05759143829345703,0.000012557953596115112,0.018932268023490906
1714065722802232300,7.185232421875,0.11077499389648438,0.051861319690942764,0.004701584577560425
1714065722812112100,7.195112060546875,0.05713367462158203,0.06047036871314049,0.0001248866319656372
1714065722821991200,7.2049912109375,-0.04269981384277344,0.02656039595603943,0.00033286213874816895
1714065722831871000,7.21487109375,-0.10320091247558594,-0.025499194860458374,0.007599979639053345
1714065722841751600,7.22475146484375,-0.07323169708251953,-0.041378192603588104,0.019335582852363586
1714065722851631000,7.234631103515625,0.02450847625732422,-0.009908653795719147,0.023812994360923767
1714065722861510100,7.24451025390625,0.09943103790283203,0.0351615771651268,0.009500935673713684
1714065722871390000,7.254389892578125,0.09777164459228516,0.05111154541373253,0.01178807020187378
1714065722881270500,7.2642705078125,-0.00038433074951171875,0.0291285403072834,0.004739120602607727
1714065722891150300,7.274150390625,-0.09454917907714844,-0.02061966061592102,0.004870206117630005
1714065722901029400,7.284029296875,-0.09533214569091797,-0.03422776237130165,0.012062057852745056
1714065722910909200,7.2939091796875,0.0004215240478515625,-0.019356757402420044,0.021487832069396973
1714065722920789800,7.303789794921875,0.08987045288085938,0.042350344359874725,0.016631335020065308
1714065722930669300,7.31366943359375,0.0930776596069336,0.06053470820188522,0.009501621127128601
1714065722940548400,7.32354833984375,0.01854228973388672,0.03368628770112991,0.0024907290935516357
1714065722950428200,7.33342822265625,-0.08535480499267578,-0.016137901693582535,0.005013495683670044
1714065722960308700,7.343308837890625,-0.10041522979736328,-0.048654209822416306,0.005140408873558044
1714065722970188500,7.3531884765625,-0.02105712890625,-0.02412598580121994,0.021744132041931152
1714065722980067600,7.363067626953125,0.07110309600830078,0.011762462556362152,0.028654709458351135
1714065722989947100,7.372947021484375,0.10758209228515625,0.04693599417805672,-0.006925791501998901
1714065722999828000,7.382827880859375,0.04928398132324219,0.041501980274915695,-0.0018918812274932861
1714065723009707500,7.39270751953125,-0.062186241149902344,0.01273534819483757,0.00764775276184082
1714065723019586600,7.402586669921875,-0.09881973266601562,-0.02967708930373192,0.019382581114768982
1714065723029466400,7.41246630859375,-0.0689249038696289,-0.03359673172235489,0.021505028009414673
1714065723039347000,7.422346923828125,0.0569915771484375,0.007159944623708725,0.021356642246246338
1714065723049226800,7.432226806640625,0.11018753051757812,0.04476438835263252,0.011675193905830383
1714065723059105500,7.44210546875,0.061263084411621094,0.0534917488694191,-0.00008033215999603271
1714065723068985300,7.4519853515625,-0.03863716125488281,0.010281290858983994,0.002485305070877075
1714065723078866000,7.461865966796875,-0.1039133071899414,-0.01796693354845047,0.004889786243438721
1714065723088745700,7.471745849609375,-0.06922626495361328,-0.02690887823700905,0.01678931713104248
1714065723098624800,7.481624755859375,0.04021644592285156,-0.00038890913128852844,0.023782089352607727
1714065723108504600,7.491504638671875,0.10310554504394531,0.046876873821020126,0.009470582008361816
1714065723118385200,7.50138525390625,0.09196758270263672,0.07216721028089523,0.007168620824813843
1714065723128264700,7.5112646484375,-0.03434181213378906,0.01699332892894745,0.007259249687194824
1714065723138143700,7.521143798828125,-0.09498214721679688,-0.02548811584711075,0.016764700412750244
1714065723148023600,7.5310234375,-0.08869361877441406,-0.029596339911222458,0.03070177137851715
1714065723157904100,7.540904052734375,0.014014244079589844,-0.01244828850030899,0.023218780755996704
1714065723167784000,7.550783935546875,0.09852790832519531,0.027955885976552963,0.01833343505859375
1714065723177662700,7.560662841796875,0.10159111022949219,0.060505352914333344,0.006348177790641785
1714065723187542500,7.57054248046875,0.005726814270019531,0.03365742787718773,-0.0006101131439208984
1714065723197423400,7.58042333984375,-0.08618545532226562,-0.018639225512742996,0.013735368847846985
1714065723207303000,7.590302978515625,-0.09652519226074219,-0.04404937103390694,0.020779117941856384
1714065723217182000,7.600181884765625,-0.010169029235839844,-0.021833296865224838,0.025351211428642273
1714065723227061800,7.610061767578125,0.0865182876586914,0.028144069015979767,0.01572193205356598
1714065723236942300,7.6199423828125,0.11803054809570312,0.04891945421695709,-0.0008093863725662231
1714065723246822000,7.62982177734375,0.02895355224609375,0.038743969053030014,-0.0029399842023849487
1714065723256701000,7.639700927734375,-0.07040882110595703,0.0028419308364391327,0.0020275264978408813
1714065723266580700,7.649580810546875,-0.1045522689819336,-0.04646817594766617,0.021037399768829346
1714065723276461300,7.65946142578125,-0.043959617614746094,-0.028920158743858337,0.020896852016448975
1714065723286341000,7.669341064453125,0.06270790100097656,0.011877335608005524,0.023112818598747253
1714065723296220200,7.67922021484375,0.11345195770263672,0.047167710959911346,0.006458267569541931
1714065723306099700,7.689099609375,0.04799365997314453,0.04184862598776817,-0.002856045961380005
1714065723315980500,7.69898046875,-0.05639457702636719,-0.0010489337146282196,0.004464283585548401
1714065723325860000,7.708860107421875,-0.1001882553100586,-0.022043779492378235,0.016370967030525208
1714065723335739100,7.7187392578125,-0.058501243591308594,-0.03785968944430351,0.023370370268821716
1714065723345619000,7.728618896484375,0.03428459167480469,0.007676433771848679,0.013774126768112183
1714065723355499500,7.73849951171875,0.0972738265991211,0.040561944246292114,0.01363624632358551
1714065723365379300,7.74837939453125,0.07210826873779297,0.05183231458067894,-0.002979084849357605
1714065723375258000,7.758258056640625,-0.03503608703613281,0.025247696787118912,-0.005073517560958862
1714065723385138000,7.768137939453125,-0.10272693634033203,-0.024435803294181824,0.0046379417181015015
1714065723395018800,7.778018798828125,-0.0821847915649414,-0.03562410548329353,0.016541719436645508
1714065723404898300,7.787898193359375,0.03218364715576172,-0.011313028633594513,0.023419901728630066
1714065723414777300,7.79777734375,0.09991741180419922,0.02671804651618004,0.008995682001113892
1714065723424657200,7.8076572265625,0.08412361145019531,0.05457976460456848,-0.007423534989356995
1714065723434537700,7.817537841796875,-0.013804435729980469,0.025476373732089996,0.007035508751869202
1714065723444417300,7.827417236328125,-0.09126758575439453,-0.00785035640001297,0.014190956950187683
1714065723454296300,7.83729638671875,-0.10152149200439453,-0.042738333344459534,0.011810317635536194
1714065723464176000,7.847176025390625,-0.0033140182495117188,-0.013481512665748596,0.02135905623435974
1714065723474056700,7.857056640625,0.08148956298828125,0.02223154902458191,0.014150545001029968
1714065723483936500,7.8669365234375,0.10602378845214844,0.0548764243721962,0.009416386485099792
1714065723493815300,7.876815185546875,0.017147064208984375,0.04472043365240097,0.000052735209465026855
1714065723503695000,7.886695068359375,-0.07731056213378906,-0.005287602543830872,0.009678781032562256
1714065723513576000,7.896575927734375,-0.11604785919189453,-0.04033699259161949,0.0026649832725524902
1714065723523455500,7.90645556640625,-0.02936553955078125,-0.015947364270687103,0.024018391966819763
1714065723533334500,7.91633447265625,0.07235145568847656,0.022160939872264862,0.02135518193244934
1714065723543214300,7.92621435546875,0.10174846649169922,0.05492575094103813,0.014027968049049377
1714065723553095000,7.936094970703125,0.03884124755859375,0.0540669709444046,0.00929589569568634
1714065723562974700,7.945974609375,-0.046561241149902344,-0.005515594035387039,-0.0024195313453674316
1714065723572853500,7.955853515625,-0.10228919982910156,-0.02643796056509018,0.004893869161605835
1714065723582733300,7.9657333984375,-0.06292152404785156,-0.04218260198831558,0.016793355345726013
1714065723592614000,7.97561376953125,0.04876899719238281,0.005779817700386047,0.02143193781375885
1714065723602493700,7.98549365234375,0.11387062072753906,0.05517825484275818,0.007159605622291565
1714065723612372700,7.995372802734375,0.06959247589111328,0.05431525409221649,0.007250353693962097
1714065723622252300,8.005252197265625,-0.04692649841308594,0.022980883717536926,0.007339641451835632
1714065723632133000,8.015133056640625,-0.10500335693359375,-0.0243106447160244,0.014490023255348206
1714065723642012700,8.0250126953125,-0.07736015319824219,-0.02843848615884781,0.021521180868148804
1714065723651891700,8.0348916015625,0.03221702575683594,0.0051696449518203735,0.00960153341293335
1714065723661771500,8.044771484375,0.08817768096923828,0.045161448419094086,0.012005746364593506
1714065723671652000,8.054652099609376,0.0772867202758789,0.06565318256616592,0.0002447664737701416
1714065723681532000,8.064531982421874,-0.029943466186523438,0.02694842219352722,0.002804994583129883
1714065723691410700,8.07441064453125,-0.09536552429199219,-0.0180550254881382,0.0006141066551208496
1714065723701290500,8.08429052734375,-0.1031951904296875,-0.03641228750348091,0.02659134566783905
1714065723711171000,8.094171142578125,-0.00024890899658203125,-0.014444217085838318,0.02635858952999115
1714065723721051000,8.10405078125,0.07979393005371094,0.03069969266653061,0.004941925406455994
1714065723730930000,8.113929931640625,0.094940185546875,0.05849500745534897,0.007423803210258484
1714065723740809500,8.1238095703125,-0.012583732604980469,0.03415357694029808,-0.004260823130607605
1714065723750690300,8.133690185546875,-0.0924215316772461,-0.017913777381181717,-0.0016255080699920654
1714065723760569900,8.14356982421875,-0.10265636444091797,-0.029210839420557022,0.01509101688861847
1714065723770449000,8.153448974609375,-0.013841629028320312,-0.019131846725940704,0.021993368864059448
1714065723780328700,8.16332861328125,0.08290958404541016,0.01902955397963524,0.005238696932792664
1714065723790209300,8.173209228515624,0.09329414367675781,0.04713810980319977,0.012424036860466003
1714065723800089000,8.183089111328124,0.01875782012939453,0.04405492916703224,0.0028914809226989746
1714065723809967900,8.1929677734375,-0.0780801773071289,-0.005942057818174362,0.007761746644973755
1714065723819847700,8.20284765625,-0.10738658905029297,-0.03391801565885544,0.012550830841064453
1714065723829728300,8.212728271484375,-0.037329673767089844,-0.023762479424476624,0.02432304620742798
1714065723839608000,8.222608154296875,0.04803943634033203,0.016830243170261383,0.017065078020095825
1714065723849487000,8.232487060546875,0.10609149932861328,0.04968388378620148,-0.008905500173568726
1714065723859366700,8.24236669921875,0.04075813293457031,0.055975012481212616,-0.003957390785217285
1714065723869247500,8.25224755859375,-0.06115531921386719,-0.0036374256014823914,0.0010270476341247559
1714065723879127000,8.262126953125,-0.11664104461669922,-0.03400597348809242,0.02476195991039276
1714065723889006000,8.272006103515626,-0.0652608871459961,-0.028555486351251602,0.026794731616973877
1714065723898886000,8.281885986328126,0.03940868377685547,0.0050545670092105865,0.01949554681777954
1714065723908766500,8.291766357421874,0.10231304168701172,0.0475211925804615,0.005136728286743164
1714065723918646300,8.301646240234374,0.06764793395996094,0.06102973595261574,-0.004274383187294006
1714065723928525000,8.311525146484374,-0.03706550598144531,0.02016662061214447,0.005304932594299316
1714065723938404900,8.32140478515625,-0.10472393035888672,-0.017661262303590775,0.014843359589576721
1714065723948285400,8.331285400390625,-0.07473182678222656,-0.036025118082761765,0.02893120050430298
1714065723958165200,8.341165283203125,0.030094146728515625,0.0024158135056495667,0.016888394951820374
1714065723968044300,8.351044189453125,0.09315204620361328,0.03774513304233551,0.01210850477218628
1714065723977923800,8.360923828125,0.0751180648803711,0.06071463227272034,-0.0068355947732925415
1714065723987804700,8.3708046875,-0.029722213745117188,0.029273565858602524,0.0005509853363037109
1714065723997684200,8.380684326171876,-0.09985637664794922,-0.027539648115634918,0.014877036213874817
1714065724007563300,8.390563232421876,-0.09113311767578125,-0.02925955504179001,0.028964266180992126
1714065724017443000,8.400443115234374,0.013967514038085938,-0.01917976886034012,0.014566317200660706
1714065724027323600,8.41032373046875,0.08671283721923828,0.03310563787817955,0.016769394278526306
1714065724037203500,8.420203369140625,0.1040964126586914,0.056150514632463455,0.002575129270553589
1714065724047082200,8.430082275390625,-0.008289337158203125,0.031729329377412796,-0.006674543023109436
1714065724056962000,8.439962158203125,-0.0952606201171875,-0.008645471185445786,-0.003999054431915283
1714065724066842600,8.449842529296875,-0.10544776916503906,-0.04116600379347801,0.02217380702495575
1714065724076722400,8.459722412109375,-0.01658916473388672,-0.012054231017827988,0.029076814651489258
1714065724086601500,8.4696015625,0.07549667358398438,0.023634951561689377,0.009968578815460205
1714065724096481300,8.479481201171875,0.10484123229980469,0.05872929096221924,-0.004231482744216919
1714065724106361900,8.48936181640625,0.02775859832763672,0.05074453353881836,-0.006423845887184143
1714065724116241400,8.499241455078124,-0.08335494995117188,-0.008780770003795624,0.0009558498859405518
1714065724126120400,8.509120361328126,-0.1078634262084961,-0.04377206042408943,0.012802183628082275
1714065724136000300,8.519000244140624,-0.037799835205078125,-0.035685863345861435,0.022215574979782104
1714065724145880800,8.528880859375,0.06876564025878906,0.0026326365768909454,0.017346903681755066
1714065724155760600,8.5387607421875,0.10528278350830078,0.052202258259058,0.007850989699363708
1714065724165639400,8.548639404296875,0.039961814880371094,0.04903465509414673,0.01028434932231903
1714065724175519200,8.558519287109375,-0.07135581970214844,0.010723665356636047,0.003260776400566101
1714065724185399800,8.56839990234375,-0.10077571868896484,-0.03624487668275833,0.022250041365623474
1714065724195279600,8.578279541015625,-0.05672264099121094,-0.028284188359975815,0.03138723969459534
1714065724205158700,8.58815869140625,0.05486583709716797,0.007675483822822571,-0.004238888621330261
1714065724215038500,8.59803857421875,0.11751079559326172,0.05516492947936058,0.03135429322719574
1714065724224919000,8.6079189453125,-0.10812187194824219,-0.1597341001033783,-0.3541073203086853
1714065724234798600,8.617798583984374,0.03018665313720703,-1.3145297765731812,-0.2875010073184967
1714065724244677600,8.627677734375,0.3239755630493164,-1.9600859880447388,-0.5827901363372803
1714065724254557400,8.637557373046874,-0.21349811553955078,-0.0839775949716568,2.4255547523498535
1714065724264438000,8.64743798828125,-0.4901294708251953,-0.6127173900604248,-0.46638089418411255
1714065724274317800,8.65731787109375,0.2785177230834961,-2.3682596683502197,-1.3400133848190308
1714065724284196600,8.667196533203125,0.08938026428222656,-2.2393722534179688,1.9699159860610962
1714065724294076400,8.677076416015625,1.235569953918457,-3.8134772777557373,-0.8293426036834717
1714065724303957000,8.68695703125,-0.5751314163208008,-3.032337188720703,-0.9359713196754456
1714065724313836800,8.6968369140625,-1.2444229125976562,-2.664787769317627,0.9852994084358215
1714065724323715800,8.7067158203125,1.1135368347167969,-4.6073455810546875,-1.0170001983642578
1714065724333595600,8.716595703125,0.900568962097168,-3.7154572010040283,0.407270222902298
1714065724343476200,8.726476318359374,-0.3769712448120117,-3.0756123065948486,0.37168675661087036
1714065724353355800,8.736355712890624,-1.0182666778564453,-4.285745143890381,-0.5808414220809937
1714065724363234800,8.74623486328125,0.7350502014160156,-5.046981334686279,-0.881702721118927
1714065724373114600,8.756114501953125,0.7619562149047852,-4.759054183959961,0.027950331568717957
1714065724382995200,8.7659951171875,0.5831975936889648,-3.90517520904541,1.3891645669937134
1714065724392875000,8.775875,-0.0035238265991210938,-3.6347591876983643,0.2880748212337494
1714065724402753800,8.78575390625,-0.6341876983642578,-3.37345814704895,0.9429712295532227
1714065724412633600,8.795633544921875,0.20549488067626953,-3.9201407432556152,-0.17401140928268433
1714065724422514200,8.80551416015625,-1.187067985534668,-2.7748775482177734,-0.3673563599586487
1714065724432394000,8.81539404296875,-0.2262735366821289,-2.935565948486328,-0.5160373449325562
1714065724442273000,8.82527294921875,2.269495964050293,-3.8108997344970703,0.21092861890792847
1714065724452152800,8.83515283203125,0.20731067657470703,-2.7957592010498047,0.4348740577697754
1714065724462033400,8.845033447265624,-1.102010726928711,-2.9222805500030518,-0.9235249757766724
1714065724471913000,8.854912841796875,-1.1180591583251953,-2.47611403465271,-0.6476045846939087
1714065724481792000,8.8647919921875,0.8436689376831055,-1.2967252731323242,1.3226712942123413
1714065724491671800,8.874671875,-0.8029308319091797,-3.1496036052703857,0.3415592908859253
1714065724501552400,8.884552490234375,1.143728256225586,-2.201498031616211,-0.42107611894607544
1714065724511432200,8.89443212890625,1.484898567199707,-2.9400012493133545,2.8673367500305176
1714065724521311000,8.90431103515625,-0.3650074005126953,-2.4712932109832764,0.9148763418197632
1714065724531190800,8.914190673828125,-0.3880157470703125,-3.3181345462799072,-3.0685956478118896
1714065724541071600,8.924071533203126,0.043129920959472656,-0.965965747833252,-1.3671422004699707
1714065724550951200,8.933951171875,-1.2912101745605469,-2.446314573287964,-1.3827357292175293
1714065724560830200,8.943830322265624,0.8283052444458008,-2.0400192737579346,1.411258339881897
1714065724570710000,8.9537099609375,2.547220230102539,-4.696537017822266,2.393660068511963
1714065724580590600,8.963590576171875,-0.7845325469970703,-1.5329372882843018,3.0277578830718994
1714065724590470100,8.97347021484375,-2.5474114418029785,-0.025125741958618164,-0.6848682761192322
1714065724600349200,8.98334912109375,0.8242158889770508,-1.2744011878967285,-0.014995113015174866
1714065724610229000,8.99322900390625,1.2995233535766602,-2.955838680267334,-1.3529452085494995
1714065724620109600,9.003109619140625,-2.161386013031006,-1.1844456195831299,-0.15921351313591003
1714065724629989400,9.0129892578125,-2.2335309982299805,-1.1957262754440308,-1.7634506225585938
1714065724639868200,9.0228681640625,1.899277687072754,-3.4447996616363525,0.9298539161682129
1714065724649748000,9.032748046875,7.3592329025268555,-3.3210740089416504,4.565769672393799
1714065724659628500,9.042628662109376,0.6599597930908203,-1.8185670375823975,2.4770090579986572
1714065724669508400,9.05250830078125,-2.8664307594299316,-0.39440441131591797,-4.3914794921875
1714065724679387400,9.062387451171874,-1.8964576721191406,0.2665719985961914,-2.940858840942383
1714065724689267000,9.072266845703124,0.27419185638427734,-0.8169627785682678,2.5737788677215576
1714065724699147800,9.082147705078125,-2.699497699737549,-1.738494873046875,3.1137688159942627
1714065724709027300,9.09202734375,1.8682432174682617,-2.5573792457580566,-0.3246844410896301
1714065724718906400,9.10190625,1.3616256713867188,-2.0495457649230957,-0.13560758531093597
1714065724728786200,9.1117861328125,-3.5652294158935547,0.8604832887649536,0.020948156714439392
1714065724738666800,9.121666748046875,-0.7161293029785156,-1.2077536582946777,-2.1954004764556885
1714065724748546600,9.131546630859376,3.0396852493286133,-3.3911972045898438,1.8797601461410522
1714065724758425300,9.14142529296875,-0.2798585891723633,-1.2977010011672974,4.369338512420654
1714065724768305200,9.15130517578125,0.47143077850341797,0.14604821801185608,-1.1487234830856323
1714065724778185700,9.161185791015624,1.4643259048461914,-0.0638018250465393,0.3351286053657532
1714065724788065500,9.1710654296875,0.3764820098876953,-2.006683349609375,1.5526819229125977
1714065724797944600,9.180944580078124,-1.645294189453125,-2.144766330718994,2.349163293838501
1714065724807824100,9.19082421875,-1.0991058349609375,-0.5862375497817993,0.04775480553507805
1714065724817705000,9.200705078125,0.42968177795410156,-1.6250739097595215,-1.0242520570755005
1714065724827584500,9.21058447265625,-0.08441638946533203,-0.10374420881271362,-1.0562477111816406
1714065724837463600,9.220463623046875,-1.2628612518310547,-1.3747797012329102,-2.0375959873199463
1714065724847343400,9.23034326171875,3.24920654296875,-2.203584909439087,2.8516170978546143
1714065724857224000,9.240223876953126,-0.025957107543945312,-1.6467385292053223,3.501739501953125
1714065724867103700,9.250103759765626,-1.7442741394042969,1.0609420537948608,-1.6092681884765625
1714065724876982500,9.259982421875,3.043478012084961,-0.3315165638923645,-2.5748860836029053
1714065724886862300,9.2698623046875,-0.6107234954833984,-3.214846134185791,-1.5085495710372925
1714065724896743000,9.279742919921874,-0.48023319244384766,-0.3577110767364502,0.2742236256599426
1714065724906622700,9.289622802734375,-1.2173032760620117,-1.2383625507354736,0.8983215689659119
1714065724916501800,9.299501708984375,-2.4580068588256836,0.6360501050949097,0.6260682344436646
1714065724926381600,9.309381591796875,0.6558856964111328,-1.3963227272033691,-2.9785284996032715
1714065724936262100,9.31926220703125,3.830465316772461,-2.1560871601104736,2.401977777481079
1714065724946141700,9.3291416015625,1.7117071151733398,-1.2467795610427856,2.7919857501983643
1714065724956020700,9.339020751953125,-3.6884613037109375,1.424938678741455,0.16993747651576996
1714065724965900500,9.348900634765625,0.5392160415649414,-0.5246752500534058,-6.261341571807861
1714065724975781000,9.358781005859376,0.8191938400268555,-1.1533093452453613,-0.5470560193061829
1714065724985661000,9.368660888671876,0.6848230361938477,-2.532691478729248,1.8397272825241089
1714065724995539700,9.378539794921876,-0.4599113464355469,-1.4307677745819092,1.3062306642532349
1714065725005419500,9.38841943359375,-3.0903873443603516,0.6313034892082214,-0.9772973656654358
1714065725015300000,9.398300048828125,3.4268674850463867,-1.8221452236175537,1.6092464923858643
1714065725025180000,9.408179931640625,2.6886024475097656,-1.525730848312378,4.376037120819092
1714065725035059000,9.418058837890625,-4.80221700668335,1.3841838836669922,0.3078781068325043
1714065725044938800,9.427938720703125,6.038871765136719,0.5065057277679443,-0.3587396740913391
1714065725054819300,9.4378193359375,-1.4758834838867188,-2.053481101989746,0.6079469919204712
1714065725064699000,9.447698974609375,-0.9097738265991211,-1.9214882850646973,-3.3293752670288086
1714065725074578000,9.457577880859375,-3.4844679832458496,0.2575628161430359,1.1841158866882324
1714065725084457700,9.467457763671876,-1.5028648376464844,1.2755200862884521,0.3693655729293823
1714065725094338300,9.47733837890625,-0.25168895721435547,-0.49577629566192627,1.4534906148910522
1714065725104218000,9.487218017578124,3.6054229736328125,-1.8284727334976196,3.1911165714263916
1714065725114097000,9.497096923828124,-0.9385261535644531,-0.056568264961242676,-0.41244184970855713
1714065725123976700,9.506976806640624,1.1681480407714844,0.04786479473114014,-0.4947979748249054
1714065725133857300,9.516857177734375,-2.296476364135742,-0.0035626888275146484,-1.7363369464874268
1714065725143737000,9.526737060546875,1.1240196228027344,-1.3256155252456665,-1.2445764541625977
1714065725153616100,9.5366162109375,-2.2751545906066895,-0.8116625547409058,1.9437623023986816
1714065725163495700,9.54649560546875,0.006327629089355469,-0.8683483600616455,-0.45468220114707947
1714065725173376500,9.55637646484375,3.6740455627441406,-1.2844924926757812,3.368103504180908
1714065725183256000,9.566256103515625,0.28313541412353516,0.5418935418128967,1.1175291538238525
1714065725193135000,9.576135009765625,-0.8689050674438477,0.40078040957450867,-1.5480637550354004
1714065725203015000,9.586014892578126,-1.7409143447875977,-1.52211332321167,-0.5895792841911316
1714065725212895500,9.5958955078125,3.389594078063965,-1.031712532043457,1.673972249031067
1714065725222775000,9.605775146484374,-0.23797893524169922,-0.8558465838432312,-1.3891090154647827
1714065725232654000,9.615654052734374,-2.897785186767578,0.6302803754806519,-2.0643653869628906
1714065725242534000,9.625533935546875,-2.0489115715026855,1.8819084167480469,3.188952684402466
1714065725252414500,9.63541455078125,2.767986297607422,-0.7031137347221375,4.78167200088501
1714065725262294300,9.645294189453125,0.9374189376831055,-1.9024975299835205,-0.07327152788639069
1714065725272173000,9.655173095703125,0.5414524078369141,-3.04133939743042,-1.5690977573394775
1714065725282052900,9.665052978515625,-1.0370149612426758,-0.2394304871559143,1.6796023845672607
1714065725291933400,9.674933349609375,0.5389575958251953,0.15104031562805176,-0.5794097185134888
1714065725301813200,9.684813232421876,-1.9338769912719727,0.2727545499801636,-6.162905216217041
1714065725311692300,9.6946923828125,1.2352371215820312,0.9979586601257324,1.8760637044906616
1714065725321571800,9.70457177734375,0.09270000457763672,1.2543267011642456,9.870330810546875
1714065725331452700,9.71445263671875,-1.4477920532226562,0.18608948588371277,2.427048444747925
1714065725341332200,9.724332275390625,-1.7898788452148438,-1.0270707607269287,-0.8589174151420593
1714065725351211300,9.734211181640624,-0.5882253646850586,-1.2051734924316406,-1.7373123168945312
1714065725361091000,9.744091064453125,-0.6431703567504883,0.23244991898536682,0.0009169802069664001
1714065725370971600,9.7539716796875,2.44873046875,1.160705327987671,2.1538102626800537
1714065725380851500,9.7638515625,1.2059507369995117,-1.5301523208618164,0.7028408050537109
1714065725390730200,9.773730224609375,2.1011009216308594,-0.6415469646453857,2.398352861404419
1714065725400610000,9.783610107421875,-1.7848215103149414,1.0173842906951904,0.2025887668132782
1714065725410490600,9.79349072265625,-1.921548843383789,-1.6860226392745972,-1.4279026985168457
1714065725420370400,9.803370361328126,1.177947998046875,-1.37201726436615,-0.0655515044927597
1714065725430249500,9.81324951171875,-0.27515220642089844,0.33812832832336426,0.8733700513839722
1714065725440129000,9.82312890625,-0.10032081604003906,0.06723988056182861,-3.365506172180176
1714065725450009600,9.833009521484374,-0.6073493957519531,1.2499449253082275,-1.200636625289917
1714065725459889400,9.842889404296875,1.1002721786499023,1.5737076997756958,3.263502836227417
1714065725469768400,9.8527685546875,1.7730579376220703,-1.3789119720458984,0.04072026163339615
1714065725479648300,9.862648193359375,-1.1092557907104492,-1.5562140941619873,0.8866499662399292
1714065725489528800,9.87252880859375,-1.7250595092773438,-1.2238359451293945,0.04280150681734085
1714065725499408400,9.882408447265625,-1.3434724807739258,0.6608750820159912,-1.3658535480499268
1714065725509287400,9.892287353515625,0.8361740112304688,0.3978862166404724,-0.48732641339302063
1714065725519167200,9.902167236328125,2.821286201477051,0.2094091773033142,1.9968955516815186
1714065725529047800,9.9120478515625,1.0467281341552734,-1.1501317024230957,-2.0246005058288574
1714065725538927600,9.921927734375,-0.6614704132080078,-0.773563802242279,-3.2710609436035156
1714065725548806400,9.931806396484374,-1.7631149291992188,0.052884459495544434,0.8028687834739685
1714065725558686200,9.941686279296874,-1.4514436721801758,-0.14295434951782227,3.3696000576019287
1714065725568566800,9.95156689453125,0.25689125061035156,0.8036719560623169,-0.5066894888877869
1714065725578446600,9.961446533203125,2.6773433685302734,-0.5440449118614197,4.63235330581665
1714065725588325400,9.971325439453125,0.5432271957397461,-0.07315248250961304,2.289721727371216
1714065725598205200,9.981205078125,2.060758590698242,0.42914941906929016,-4.2525153160095215
1714065725608086000,9.9910859375,-0.4548835754394531,-1.074475646018982,-0.8114457726478577
1714065725617965600,10.000965576171875,-1.5869178771972656,-1.273405909538269,0.839190661907196
1714065725627844600,10.0108447265625,-3.7283291816711426,0.21356859803199768,-0.2564193606376648
1714065725637724400,10.020724365234376,-1.001007080078125,1.5919694900512695,-1.3663123846054077
1714065725647605000,10.03060498046875,3.6754493713378906,-0.34274035692214966,4.915009021759033
1714065725657484500,10.040484619140624,1.76043701171875,1.3743740320205688,4.7228875160217285
1714065725667363600,10.050363525390624,1.6264152526855469,-1.0103251934051514,-0.849654495716095
1714065725677243400,10.060243408203124,-2.0030107498168945,-2.005202054977417,-3.239004373550415
1714065725687124000,10.0701240234375,-4.584273338317871,0.9228495359420776,-0.9410632252693176
1714065725697003800,10.080003662109375,-1.114863395690918,0.4284955561161041,0.36500218510627747
1714065725706882600,10.089882568359375,-0.15149879455566406,0.22270554304122925,5.073101997375488
1714065725716762400,10.099762451171875,2.875260353088379,1.470993995666504,4.599234104156494
1714065725726643000,10.109642822265625,3.1426897048950195,-0.6137524843215942,-2.557037591934204
1714065725736522800,10.119522705078126,0.6722211837768555,-2.2184083461761475,-2.0717737674713135
1714065725746401800,10.12940185546875,-2.7972989082336426,0.57950758934021,0.03603123873472214
1714065725756281300,10.13928125,-3.6351370811462402,1.1457388401031494,-0.6425464153289795
1714065725766162200,10.149162109375,-0.5732793807983398,-0.11199843883514404,1.5004162788391113
1714065725776041700,10.159041748046874,2.8218860626220703,-0.2650359272956848,2.6380455493927
1714065725785920800,10.168920654296874,1.274256706237793,-0.19744473695755005,3.456198215484619
1714065725795800600,10.178800537109375,3.8665084838867188,-1.211426019668579,-1.9218764305114746
1714065725805681200,10.18868115234375,-1.4265775680541992,-0.27021658420562744,-4.304412841796875
1714065725815560700,10.198560791015625,-4.2006025314331055,-0.11895674467086792,-3.9946138858795166
1714065725825439700,10.208439697265625,-2.352782726287842,1.3969144821166992,2.663956642150879
1714065725835319600,10.218319580078125,1.5878419876098633,2.936450719833374,8.023117065429688
1714065725845200100,10.2282001953125,5.214020729064941,0.901799201965332,4.707363605499268
1714065725855080000,10.238079833984376,-0.17177391052246094,-1.4522182941436768,-3.351548671722412
1714065725864958700,10.247958740234376,-2.219602108001709,-1.4815988540649414,-4.345895767211914
1714065725874838500,10.257838623046876,-2.877054214477539,0.667402446269989,-0.7002478837966919
1714065725884719000,10.267718994140624,0.8155250549316406,-0.6318897604942322,2.829111099243164
1714065725894599000,10.277598876953125,0.025390625,-0.28638631105422974,0.13330601155757904
1714065725904478000,10.28747802734375,5.044034004211426,-0.07862019538879395,0.8460072875022888
1714065725914357500,10.297357421875,-1.3712472915649414,-0.2896406054496765,4.025980472564697
1714065725924238300,10.30723828125,0.5926542282104492,0.5445455312728882,-0.21335469186306
1714065725934118000,10.317117919921875,-0.5337495803833008,0.10918259620666504,-5.790526866912842
1714065725943997000,10.326996826171875,-2.42279052734375,0.8452767133712769,0.9134408235549927
1714065725953876700,10.336876708984375,-2.0119338035583496,1.9958174228668213,4.82385778427124
1714065725963757300,10.34675732421875,4.618107795715332,0.003379344940185547,0.7030834555625916
1714065725973636900,10.356636962890626,1.4705085754394531,-1.464589238166809,0.32199206948280334
1714065725983516000,10.366515869140626,-3.300136089324951,-0.6805084943771362,-2.225613832473755
1714065725993395700,10.376395751953124,0.9086894989013672,0.9804670214653015,-1.6638227701187134
1714065726003276300,10.3862763671875,1.1826105117797852,-0.295771062374115,4.814561367034912
1714065726013156000,10.396156005859375,-1.1548738479614258,-0.11155915260314941,5.377464771270752
1714065726023035000,10.406034912109375,-0.7093515396118164,-0.9078588485717773,-0.7056764364242554
1714065726032914700,10.415914794921875,3.698488235473633,-1.946211576461792,0.44443362951278687
1714065726042795300,10.425795166015625,-3.8965535163879395,0.34860002994537354,-1.44727623462677
1714065726052675000,10.435675048828125,1.6073951721191406,1.2457144260406494,-3.805513858795166
1714065726062554000,10.44555419921875,-1.1644716262817383,1.289499282836914,-0.49915817379951477
1714065726072433700,10.45543359375,-4.895674705505371,2.4251909255981445,1.462445855140686
1714065726082314200,10.465314208984376,0.5754299163818359,0.14629599452018738,-0.07864952087402344
1714065726092194000,10.475194091796874,0.6831474304199219,-1.922432780265808,0.8768714070320129
1714065726102073000,10.485072998046874,-1.3129138946533203,0.17199411988258362,1.364643931388855
1714065726111953000,10.494952880859374,3.4041242599487305,-0.8433941602706909,1.4402961730957031
1714065726121833500,10.50483349609375,0.6420145034790039,0.0652855932712555,0.5912317037582397
1714065726131713000,10.514713134765625,1.9085006713867188,1.522019624710083,-0.7934333086013794
1714065726141592000,10.524592041015625,-1.537400245666504,0.2928355932235718,-1.302363395690918
1714065726151471900,10.534471923828125,-3.6322836875915527,0.44714275002479553,-0.6252292394638062
1714065726161352400,10.5443525390625,-1.3992033004760742,1.2701430320739746,-1.0391907691955566
1714065726171232000,10.55423193359375,1.2970504760742188,0.039978355169296265,5.309969902038574
1714065726181111000,10.564111083984375,1.6269330978393555,2.030639171600342,6.029170513153076
1714065726190990800,10.573990966796876,2.1981887817382812,-1.0185751914978027,-0.8634864091873169
1714065726200871400,10.583871337890624,-1.4733467102050781,-2.909757137298584,-5.677814483642578
1714065726210751200,10.593751220703124,-2.1102118492126465,-0.9420182704925537,-3.326066255569458
1714065726220630000,10.603630126953124,-0.04362010955810547,1.052333116531372,-1.2460339069366455
1714065726230509800,10.613509765625,3.2730283737182617,1.457435131072998,5.858525276184082
1714065726240390400,10.623390380859375,-1.442610740661621,0.4415333569049835,4.93958854675293
1714065726250270200,10.633270263671875,1.2617950439453125,-0.6785205006599426,-3.5075056552886963
1714065726260149200,10.643149169921875,0.4759407043457031,-1.1289842128753662,-4.188704013824463
1714065726270029000,10.653029052734375,-5.032609462738037,2.1882307529449463,0.28591763973236084
1714065726279909600,10.66290966796875,1.2932939529418945,3.193074941635132,1.373732566833496
1714065726289789200,10.6727890625,4.524785995483398,0.6584833860397339,4.521265983581543
1714065726299668200,10.682668212890626,-3.3842225074768066,0.42760980129241943,3.715883255004883
1714065726309548000,10.692548095703126,2.635866165161133,-0.8059203028678894,-2.099392890930176
1714065726319428600,10.7024287109375,-0.9411354064941406,-2.292360782623291,-4.889341831207275
1714065726329308200,10.71230810546875,3.839132308959961,-2.3124969005584717,-2.8184735774993896
1714065726339187200,10.722187255859374,0.844182014465332,-0.03658640384674072,3.930175542831421
1714065726349067000,10.73206689453125,-2.2000250816345215,3.757472276687622,8.4857177734375
1714065726358947600,10.741947509765625,1.7565784454345703,2.0391924381256104,3.605806827545166
1714065726368827400,10.751827392578125,-1.0115337371826172,-1.871727466583252,-2.525554895401001
1714065726378706200,10.7617060546875,-4.010532379150391,-0.8419622182846069,-6.548182010650635
1714065726388586000,10.7715859375,2.206477165222168,0.6834750175476074,-2.0474157333374023
1714065726398466600,10.781466552734376,0.6848201751708984,0.8181089162826538,5.328479766845703
1714065726408346400,10.791346435546876,3.0638856887817383,1.8427371978759766,3.1663503646850586
1714065726418225400,10.801225341796876,-0.9986200332641602,-0.46858322620391846,1.5753031969070435
1714065726428105000,10.81110498046875,-2.572277069091797,0.659228503704071,1.2572818994522095
1714065726437985500,10.820985595703124,1.1608171463012695,-1.2406864166259766,-4.310375213623047
1714065726447865300,10.830865234375,-0.4045705795288086,-2.0578179359436035,-3.2061264514923096
1714065726457744400,10.840744384765625,-2.15622615814209,1.292149543762207,2.9974124431610107
1714065726467624200,10.850624267578125,2.982820510864258,2.3285107612609863,3.906134843826294
1714065726477504800,10.8605048828125,2.009235382080078,-1.531419038772583,3.2848024368286133
1714065726487384300,10.87038427734375,-3.677509307861328,0.2540299594402313,-3.1748242378234863
1714065726497263400,10.880263427734375,-1.285008430480957,1.155118465423584,-3.441119909286499
1714065726507143200,10.89014306640625,-2.052755832672119,1.7183046340942383,5.348016738891602
1714065726517023700,10.900023681640626,1.5249462127685547,1.2574632167816162,1.3373103141784668
1714065726526903600,10.909903564453124,1.620748519897461,-1.5022244453430176,-4.089083671569824
1714065726536782300,10.9197822265625,0.29735565185546875,-1.7008018493652344,0.8611410856246948
1714065726546662100,10.929662109375,0.15730857849121094,0.07938209176063538,0.7282181978225708
1714065726556542700,10.939542724609375,0.2619972229003906,1.0703322887420654,-1.5864194631576538
1714065726566422500,10.949422607421875,-2.5699148178100586,2.613870620727539,4.285067081451416
1714065726576301600,10.959301513671875,-0.20140647888183594,2.3897619247436523,2.26802134513855
1714065726586181000,10.96918115234375,2.537369728088379,-1.7533864974975586,-1.7657153606414795
1714065726596061700,10.979061767578125,-7.283768653869629,-1.338914394378662,-1.7522661685943604
1714065726605941500,10.98894140625,3.874910354614258,0.08589726686477661,0.365067720413208
1714065726615820500,10.998820556640625,2.4302520751953125,1.3405768871307373,1.6450115442276
1714065726625700400,11.008700439453126,1.6438169479370117,1.4291801452636719,0.9902198314666748
1714065726635581000,11.018580810546876,-0.24132919311523438,0.6446420550346375,2.563981533050537
1714065726645460500,11.02846044921875,-4.0916266441345215,0.05636996030807495,0.8803425431251526
1714065726655339500,11.038339599609374,-0.995020866394043,0.9844691157341003,-1.4090579748153687
1714065726665219300,11.04821923828125,0.9744300842285156,-0.04197424650192261,1.4574304819107056
1714065726675100000,11.058099853515625,4.657441139221191,1.6096965074539185,3.558101177215576
1714065726684979700,11.067979736328125,0.7355480194091797,-0.8108312487602234,-2.7644805908203125
1714065726694858500,11.0778583984375,-1.4521551132202148,-2.4548299312591553,-2.929716110229492
1714065726704738300,11.08773828125,-3.2661280632019043,0.13052865862846375,2.4408724308013916
1714065726714619000,11.097618896484375,2.841001510620117,2.1550779342651367,4.787525653839111
1714065726724498700,11.107498779296876,2.16256046295166,-0.0012309551239013672,3.1245832443237305
1714065726734377500,11.11737744140625,1.0637922286987305,1.0021700859069824,-5.2182393074035645
1714065726744257300,11.12725732421875,0.44295406341552734,0.41456127166748047,-4.4416399002075195
1714065726754137900,11.137137939453124,-5.597193241119385,0.4937203824520111,0.9961216449737549
1714065726764017700,11.147017578125,-4.643425941467285,1.9209964275360107,1.8198144435882568
1714065726773896700,11.156896728515624,5.124510765075684,0.3841175138950348,3.1097047328948975
1714065726783776500,11.166776611328125,0.1524066925048828,0.19594314694404602,6.7268967628479
1714065726793657000,11.176656982421875,4.967787742614746,-0.566978931427002,-0.18499529361724854
1714065726803536600,11.18653662109375,1.629861831665039,-3.0432424545288086,-6.344541072845459
1714065726813415700,11.196415771484375,-6.306817054748535,0.6051690578460693,-2.1427881717681885
1714065726823295500,11.20629541015625,-0.8112907409667969,3.325791835784912,2.2298083305358887
1714065726833176000,11.216176025390626,3.053834915161133,3.379117488861084,4.959900379180908
1714065726843055600,11.2260556640625,1.5686521530151367,0.4334588348865509,0.6647784113883972
1714065726852934700,11.2359345703125,1.1320667266845703,-1.7963947057724,-0.773949384689331
1714065726862814500,11.245814453125,-3.933471202850342,-1.7710046768188477,-3.0344769954681396
1714065726872695000,11.255695068359374,-0.5918846130371094,1.0286579132080078,-1.8093574047088623
1714065726882574800,11.265574951171875,1.6137361526489258,-0.429892897605896,2.2790114879608154
1714065726892453600,11.27545361328125,5.666450500488281,1.0116512775421143,4.374647617340088
1714065726902333400,11.28533349609375,1.2553701400756836,0.15444549918174744,0.3880265951156616
1714065726912214000,11.295214111328125,-5.882683277130127,0.6130310297012329,0.22996896505355835
1714065726922093800,11.30509375,-2.5425829887390137,2.5209412574768066,-0.7443853616714478
1714065726931972900,11.314972900390625,1.701211929321289,0.6119873523712158,0.6467844843864441
1714065726941852400,11.324852294921875,1.2074165344238281,-0.9793661832809448,2.414715051651001
1714065726951733000,11.33473291015625,-0.8113470077514648,0.028936803340911865,0.07751511037349701
1714065726961612800,11.34461279296875,4.394325256347656,-1.4619086980819702,1.7420806884765625
1714065726971491800,11.354491943359376,-1.931671142578125,-2.1631593704223633,-1.0392683744430542
1714065726981371600,11.36437158203125,0.12102890014648438,-1.1610018014907837,2.4165849685668945
1714065726991252200,11.374252197265625,-1.6294231414794922,-0.05645263195037842,0.7535284161567688
1714065727001131800,11.3841318359375,-0.040790557861328125,2.363672971725464,-2.904623031616211
1714065727011010800,11.3940107421875,0.5192937850952148,2.1414554119110107,1.2753572463989258
1714065727020890600,11.403890625,-1.2335491180419922,0.38826078176498413,3.6179158687591553
1714065727030771200,11.413771240234375,-5.6648101806640625,0.6394985318183899,1.8102604150772095
1714065727040650800,11.423650634765625,-6.296350479125977,2.8975954055786133,2.7003531455993652
1714065727050529800,11.43352978515625,2.6871843338012695,2.573378086090088,2.7208075523376465
1714065727060409600,11.44340966796875,7.498376846313477,-2.036271572113037,-4.704189777374268
1714065727070290200,11.453290283203126,-2.5588269233703613,-4.666451930999756,-4.688482284545898
1714065727080170000,11.463169921875,-4.391067981719971,-1.0468636751174927,1.0994001626968384
1714065727090048800,11.473048828125,2.3071041107177734,3.0183064937591553,7.932212829589844
1714065727099928600,11.482928466796874,0.01361846923828125,3.6300745010375977,6.495502471923828
1714065727109809200,11.49280908203125,0.6395912170410156,0.7518294453620911,-4.9543890953063965
1714065727119689000,11.50268896484375,1.1658830642700195,-2.456944465637207,-7.312614917755127
1714065727129568000,11.512568115234375,-6.0506672859191895,-0.20135319232940674,-1.82743239402771
1714065727139447600,11.522447509765625,1.5191154479980469,1.930877447128296,1.9250134229660034
1714065727149328400,11.532328369140625,4.775594711303711,0.46253523230552673,7.452807903289795
1714065727159208000,11.5422080078125,-3.195054531097412,0.8857253789901733,7.519191741943359
1714065727169087000,11.5520869140625,5.92561149597168,-0.5810679197311401,-1.5641933679580688
1714065727178966800,11.561966796875,-3.460361957550049,-2.3644204139709473,-7.040956974029541
1714065727188847400,11.571847412109374,-0.9609613418579102,-0.2182992398738861,-1.203002691268921
1714065727198727000,11.581726806640624,0.8443012237548828,0.7686049938201904,5.99677038192749
1714065727208606000,11.59160595703125,-1.0173835754394531,2.8960466384887695,3.7588436603546143
1714065727218485800,11.60148583984375,5.4448957443237305,1.2754619121551514,1.7009825706481934
1714065727228366300,11.611366455078125,-0.47536468505859375,-1.7176671028137207,-0.05001172423362732
1714065727238246100,11.62124609375,-6.102168560028076,-0.8881009817123413,-5.379043102264404
1714065727248125000,11.631125,-0.1866931915283203,0.9655150771141052,-3.829754590988159
1714065727258004700,11.641004638671875,-0.9378023147583008,2.3741941452026367,2.0878076553344727
1714065727267885300,11.65088525390625,6.798769950866699,-0.2830776572227478,0.8910166621208191
1714065727277765000,11.66076513671875,1.0142488479614258,-1.610671043395996,3.499803066253662
1714065727287644000,11.670643798828126,-8.17991828918457,1.9593889713287354,5.687277793884277
1714065727297523700,11.680523681640626,6.0607805252075195,3.1838812828063965,2.994724988937378
1714065727307404300,11.690404296875,4.597336769104004,-0.7504411339759827,-3.8780264854431152
1714065727317284000,11.7002841796875,-5.01447868347168,-2.4471893310546875,-5.656578063964844
1714065727327163100,11.7101630859375,-0.9039888381958008,-0.07180684804916382,1.2614115476608276
1714065727337042700,11.720042724609375,2.4026899337768555,1.8290843963623047,3.7056546211242676
1714065727346923500,11.729923583984375,4.080625534057617,-1.5943186283111572,2.6897475719451904
1714065727356803000,11.739802978515625,-2.0515847206115723,-0.8650534749031067,2.1991915702819824
1714065727366682000,11.74968212890625,-4.1098198890686035,1.2027199268341064,-2.2196402549743652
1714065727376562000,11.75956201171875,0.4636659622192383,2.3461785316467285,-2.9830689430236816
1714065727386442500,11.7694423828125,1.278306007385254,0.8615281581878662,0.5935925245285034
1714065727396322000,11.779322021484376,-0.07947635650634766,2.002284288406372,4.351154327392578
1714065727406201000,11.789201171875,-0.00970458984375,3.9692325592041016,4.223250865936279
1714065727416081000,11.799080810546876,-4.462505340576172,4.763347148895264,3.255709171295166
1714065727425961500,11.80896142578125,2.209218978881836,3.886378049850464,-3.8352582454681396
1714065727435841000,11.818841064453125,1.6157846450805664,0.61142498254776,-5.130654335021973
1714065727445720000,11.828719970703125,-4.109867572784424,2.3743398189544678,0.7669849395751953
1714065727455599900,11.838599853515625,2.1223487854003906,3.9781606197357178,5.498996734619141
1714065727465480400,11.84848046875,1.630537986755371,4.3331074714660645,10.0125093460083
1714065727475360300,11.8583603515625,-0.739842414855957,1.9873656034469604,2.091132402420044
1714065727485239000,11.868239013671875,1.5900497436523438,-0.1842612326145172,-4.540767192840576
1714065727495118800,11.878118896484375,-2.328096866607666,0.7877718210220337,-6.186107635498047
1714065727504999400,11.88799951171875,-3.0072455406188965,2.609415054321289,-0.7138814926147461
1714065727514879200,11.897879150390626,-0.35807228088378906,3.989410161972046,3.645577907562256
1714065727524758300,11.90775830078125,6.290946960449219,2.2094664573669434,6.190648555755615
1714065727534637800,11.917637939453124,0.6248331069946289,1.5058045387268066,3.7292380332946777
1714065727544518400,11.927518310546875,-2.464245319366455,2.4437835216522217,-0.001537291333079338
1714065727554398200,11.937398193359375,-1.5125255584716797,1.8566241264343262,-4.56257438659668
1714065727564277200,11.94727734375,2.996819496154785,-1.113782525062561,-5.883573055267334
1714065727574156800,11.95715673828125,-1.1687078475952148,1.8999531269073486,4.800886631011963
1714065727584037600,11.96703759765625,-0.6714410781860352,6.3043437004089355,10.128087997436523
1714065727593917200,11.976917236328125,-1.4408798217773438,3.94144344329834,2.928999662399292
1714065727603796200,11.986796142578125,4.052674293518066,0.9106091856956482,-2.216585874557495
1714065727613676000,11.996676025390625,-1.5032672882080078,-0.5242496728897095,-1.761668086051941
1714065727623556600,12.006556640625,-0.18181896209716797,0.3400351405143738,-1.2564631700515747
1714065727633436200,12.016436279296874,-0.09574699401855469,2.7955145835876465,3.3727006912231445
1714065727643315200,12.026315185546874,-1.2872743606567383,3.9705710411071777,2.7257955074310303
1714065727653195000,12.036195068359374,-0.6413307189941406,4.411766529083252,0.04622340947389603
1714065727663075600,12.04607568359375,-0.851776123046875,3.303818464279175,1.0801092386245728
1714065727672955100,12.055955078125,1.2470998764038086,0.5686322450637817,0.7494509816169739
1714065727682834200,12.065834228515625,-0.03154754638671875,-0.22633381187915802,1.6410880088806152
1714065727692714000,12.0757138671875,-1.0274333953857422,1.304783582687378,1.9004212617874146
1714065727702594600,12.085594482421875,-1.6118907928466797,3.2080459594726562,3.85595965385437
1714065727712474400,12.095474365234375,0.6806116104125977,4.811009407043457,4.2587456703186035
1714065727722353200,12.105353271484375,0.6646661758422852,2.421027421951294,0.7784005403518677
1714065727732233000,12.11523291015625,4.894198417663574,-0.8528376817703247,-5.460765838623047
1714065727742113500,12.125113525390624,-3.2332663536071777,-0.4260881543159485,-2.900131940841675
1714065727751993300,12.134993408203124,-2.458883762359619,2.918879270553589,0.5997162461280823
1714065727761872400,12.144872314453124,-2.2568540573120117,4.228657245635986,4.089317321777344
1714065727771752000,12.154751953125,-0.8131189346313477,4.511043548583984,2.915832996368408
1714065727781632500,12.164632568359375,3.4734792709350586,2.9692795276641846,2.7520461082458496
1714065727791512300,12.17451220703125,1.320474624633789,0.7476009726524353,1.5114930868148804
1714065727801391400,12.184391357421875,1.1979970932006836,0.44394272565841675,-0.7914454936981201
1714065727811271000,12.19427099609375,0.2778053283691406,0.43429622054100037,-1.3450320959091187
